acc_x, acc_y, angular_z, stamp, 
-0.12458985725622038,0.5592624965834253,0.5081256874720576,900745000000
-0.033184746036984576,0.6230516897292603,0.5086621765942012,900750000000
-0.05705667024375308,0.479472940673211,0.5094204032573467,900755000000
-0.1268509652560463,0.5824441135120466,0.5093796670968957,900760000000
0.059778065949692205,0.5968099754753695,0.5103054873101642,900765000000
-0.10916443727765995,0.45777737082521436,0.5102856747676875,900770000000
-0.14237500841748107,0.5711322816656065,0.5111745095461034,900775000000
0.07179688554723347,0.6747846816372132,0.5117941462234049,900780000000
-0.08008773730617444,0.4934183351110147,0.5113172333960773,900785000000
-0.1519553188288426,0.5828664748884661,0.5120519134100218,900790000000
0.049268340633721555,0.6087387064585456,0.5118989436122083,900795000000
-0.08178847340818197,0.4888380839966084,0.5115096011460384,900800000000
-0.15170238503254044,0.5792583847339547,0.5122148721600202,900805000000
-0.03360045345900903,0.656653191622265,0.5120620097234265,900810000000
-0.03490137044117578,0.5732821863901886,0.5126909383676928,900815000000
-0.13950662291839244,0.606543668095959,0.5129270626230039,900820000000
-0.004147482063236887,0.6475610596435208,0.5141086905028002,900825000000
-0.04816400351216041,0.4963395458929256,0.513939483957673,900830000000
-0.10087164072291016,0.6169713332118643,0.5149632237657703,900835000000
-0.012266793704610496,0.6234680997108779,0.5155712728810717,900840000000
-0.016514976402735533,0.5144225238984976,0.5161277372770627,900845000000
-0.11212267998621611,0.6066446685244982,0.5159332769038485,900850000000
0.007696244917994238,0.6588547695253166,0.5165542918953206,900855000000
-0.04527900787470639,0.4866698467881178,0.516335456359669,900860000000
-0.10983102043323223,0.595794782587662,0.5167879491759046,900865000000
-0.008822713473256177,0.6218169354735786,0.5169113184179216,900870000000
-0.06132379392088331,0.49811613230572205,0.5164165420530499,900875000000
-0.11753986754231445,0.5720363928458586,0.5168716833725,900880000000
-0.023498433278252254,0.6288005212551697,0.5168648388406459,900885000000
-0.031720275769166736,0.4950817670684986,0.5170337215377109,900890000000
-0.11176696597452271,0.5993068741751935,0.5175152956633313,900895000000
-0.013953471618294657,0.6370753307574619,0.5175178800445053,900900000000
-0.05017779459668144,0.5167839468077257,0.5172748625136675,900905000000
-0.12999692149360687,0.599137819937534,0.5176086723716085,900910000000
-0.0011741452223415073,0.6486663285551549,0.5178196462674628,900915000000
-0.053213039169503575,0.4973069806243489,0.5176679244359408,900920000000
-0.13035006135627777,0.5772448588331928,0.5179471996413123,900925000000
-0.001066515854116099,0.6413471978516921,0.5184804040227554,900930000000
-0.05898245424227758,0.48002390703518694,0.518375058153503,900935000000
-0.10988598782307152,0.5878435346298163,0.5180912808004838,900940000000
-0.019426492859457502,0.6192591955771335,0.5187142887485188,900945000000
-0.055865241615167587,0.4825527163823998,0.5183383778294464,900950000000
-0.03809369575182451,0.587759072307194,0.5181513474718439,900955000000
-0.08844247129912515,0.5636243129562164,0.5182610441152455,900960000000
0.00046175644582875826,0.5461945071700773,0.5179342658331185,900965000000
-0.043901967454053524,0.561909568579324,0.5179079718508052,900970000000
-0.1075186301656374,0.6047598184091632,0.5183172272361337,900975000000
0.010828027417274604,0.6414134345255808,0.5186386625539744,900980000000
-0.08510699318945948,0.4975372070967461,0.5187434810376734,900985000000
-0.13180310565488285,0.6314869000341148,0.5192375881566826,900990000000
0.02064970174783021,0.6613081287575704,0.5196040447497823,900995000000
-0.008854497224585853,0.5207113462548995,0.5205864758227218,901000000000
-0.1404541286167191,0.6205073683956697,0.5207984814305328,901005000000
-0.02979239148124445,0.6485926826108098,0.5213882503428497,901010000000
-0.04067056636981999,0.47508913340790193,0.5214594176951275,901015000000
-0.1126426107002119,0.6063621495821473,0.522018669848804,901020000000
-0.016836052850240774,0.6762302237138595,0.5222100877576044,901025000000
-0.0814017035603595,0.5132934527835457,0.5225764042206623,901030000000
-0.06130603451949626,0.60264831360547,0.5219473476550803,901035000000
-0.09113907525118699,0.6167601241629682,0.5223079909173037,901040000000
-0.016376610252057708,0.5689695112167179,0.5226247270826025,901045000000
-0.0626000227771517,0.5576669883294604,0.5225776355574931,901050000000
-0.08418093671501203,0.5943442755356677,0.5225583473309644,901055000000
0.04082257460526241,0.6193481750927229,0.5228358289670075,901060000000
-0.09007431447637242,0.5055202651496129,0.5233583589685278,901065000000
-0.13119630829100387,0.6049603936398016,0.5231814851354101,901070000000
0.013259363265441162,0.6336196946791068,0.5229613897105779,901075000000
-0.10066794133559298,0.5230361490688554,0.5230027447023152,901080000000
-0.12339415648991711,0.5980309254610339,0.5224160543489185,901085000000
0.07093364148796752,0.6618426651237226,0.5228445666341031,901090000000
-0.08963286877856862,0.4864835874845539,0.5217148846644677,901095000000
-0.10431297747354171,0.6093491206361714,0.5210604983487276,901100000000
-0.020791008977101923,0.6446430498705146,0.5209064225515744,901105000000
-0.05797971416238039,0.5122856275715437,0.5206411041335661,901110000000
-0.08032202825629955,0.6033482434298008,0.5200921436242709,901115000000
0.021317217119951676,0.6069886617556581,0.5203953724328647,901120000000
-0.11927248670963428,0.5487465840958216,0.5197674529131018,901125000000
-0.1080871524909311,0.5893744364336679,0.5195451991914423,901130000000
0.027324215995891434,0.6124478173043834,0.5196981540341569,901135000000
-0.09508031722895119,0.5184304971907558,0.5194377320979686,901140000000
-0.1346388084739784,0.5677777514388089,0.5196407948626249,901145000000
0.014888836329321033,0.6406172103909153,0.5202344052971897,901150000000
-0.050214308364493,0.5120149568943477,0.5201206803327945,901155000000
-0.10975026002629192,0.6032341885369747,0.520206324035842,901160000000
0.049357540675347734,0.6259590041666709,0.5212014317262244,901165000000
-0.0814301486864872,0.4995272051308019,0.5212376291873941,901170000000
-0.15099047063677073,0.5768105220679397,0.5207856854337919,901175000000
0.01939118037658142,0.6041543058578326,0.5214225801841178,901180000000
-0.0689580477725053,0.5344092127501306,0.521095979992449,901185000000
-0.11689449182504326,0.580533328393002,0.5209867709611421,901190000000
0.06500654043014653,0.6401990396419482,0.5206313098358873,901195000000
-0.10181268919429987,0.5202554816987118,0.5203895261771597,901200000000
-0.13461825954021023,0.621316614934357,0.5206490996471188,901205000000
0.061327713427677295,0.6009965449583567,0.5206377149842392,901210000000
-0.12577079900330804,0.5260423774149671,0.5207345076042028,901215000000
-0.17640331770098433,0.6100122401887381,0.5212263432353132,901220000000
0.031081455820490666,0.5728734317427175,0.5212638912929652,901225000000
-0.06992240992258206,0.6001195671784761,0.5220593883430065,901230000000
-0.07972164999106741,0.6393952434730309,0.5229034514431218,901235000000
0.005081468215277201,0.5253348897924791,0.5228677853441995,901240000000
-0.08940631598661547,0.611806347663542,0.5232517280641711,901245000000
0.00747258615450413,0.6056304624279713,0.5240256253339804,901250000000
-0.05365601435520781,0.5279923296665624,0.5241610276721479,901255000000
-0.1273951189429108,0.5731261852304644,0.5238934313110807,901260000000
0.10275621771485834,0.6342223949293775,0.5239416858583444,901265000000
-0.11036130183447494,0.5750476167771869,0.5236009775344657,901270000000
-0.15110033096374753,0.5784255460800694,0.5231614984305841,901275000000
0.07783262464387149,0.6204842729156802,0.523074806847974,901280000000
-0.06835879759270846,0.5358103990146302,0.5220976865592667,901285000000
-0.1335075063260432,0.5851562778949585,0.5210693986721575,901290000000
0.057302913633582406,0.6095443805117665,0.5205074826924297,901295000000
-0.07390312663133132,0.5314573259043046,0.5203295793113683,901300000000
-0.13301919262217288,0.6219220790744852,0.5197784568325119,901305000000
0.032834479533651664,0.6270320165507591,0.5199531621397026,901310000000
-0.020106605659425694,0.49478053187055226,0.5196495019034302,901315000000
-0.15115940906489025,0.6015193286239812,0.5195750259755493,901320000000
0.08008179097387136,0.6121422828145141,0.5205344223226727,901325000000
-0.05871894356553437,0.49107260338431596,0.520486620845792,901330000000
-0.16871331890315155,0.6039058802813352,0.5211519532245629,901335000000
0.08684422517110227,0.6498991503202306,0.5221332092795802,901340000000
-0.06400726246615415,0.5372260513194803,0.5222341630453964,901345000000
-0.16394420646524877,0.6042926267586232,0.5226109882407981,901350000000
0.0554254121919428,0.6101416062196316,0.5235233674642918,901355000000
-0.0372976317911263,0.5013837528651228,0.5232316452406088,901360000000
-0.1601232015373079,0.5880098540175793,0.5236674744201015,901365000000
0.13621780793024196,0.6165773390112519,0.5239312100914586,901370000000
-0.14707004433046017,0.56012167091181,0.5238888278319378,901375000000
-0.17509819578856312,0.6075330332481825,0.5237142724455466,901380000000
0.1143789029935654,0.6349214940898658,0.5237395358097663,901385000000
-0.11021371840940722,0.5287229728888855,0.5234523643026577,901390000000
-0.11076165818271863,0.5951194888439776,0.5235259391008251,901395000000
0.11794499189102904,0.6228982525869527,0.5237022669859109,901400000000
-0.13094199154824784,0.5242656914024831,0.522993250750722,901405000000
-0.11556681762798593,0.589648791807791,0.5234026447721806,901410000000
0.05677680905571961,0.6162117765929883,0.5239934604767816,901415000000
-0.10545625020512796,0.5806311496135038,0.5236479650199004,901420000000
-0.13327343691163285,0.6105056648257844,0.5237948470572689,901425000000
0.09096213550595252,0.6195418805368755,0.5246771817080556,901430000000
-0.1142029797886103,0.5140432042452324,0.5240766007082628,901435000000
-0.1229131255001178,0.6118758694000834,0.5240229393803307,901440000000
0.042498814387620654,0.6430376220946125,0.5249854542797856,901445000000
-0.09228166399830388,0.5551337127650543,0.5250882133603582,901450000000
-0.14837626080612407,0.5633058973518633,0.5250984041448158,901455000000
0.05752048581283841,0.6042935302621959,0.5256550533008771,901460000000
-0.08887365393970126,0.5294968779802963,0.5255418114603573,901465000000
-0.14374978935430993,0.552267665987557,0.5252762969242877,901470000000
0.08379516180739119,0.6206132403349701,0.5260123153430712,901475000000
-0.07054088611163131,0.5582912418034386,0.5257730819052918,901480000000
-0.10101777061488125,0.6108431808808116,0.5259943691237615,901485000000
0.057322482063116326,0.6372695634315674,0.5268391101398668,901490000000
-0.09098907628617792,0.49906838873199333,0.5269762925861328,901495000000
-0.1436833848441232,0.5899035836618812,0.526569923706314,901500000000
0.016383890592260662,0.6199112193364049,0.5276685186657888,901505000000
-0.05100522715228653,0.5257070954163211,0.5282178900516343,901510000000
-0.1345598407358164,0.5914474689785179,0.5280709695308611,901515000000
0.010597664465105119,0.6048761068814299,0.5294477626221358,901520000000
-0.03391438413214711,0.5233490530118061,0.529222451746865,901525000000
-0.1344336656691963,0.5916882319310973,0.5288895682278705,901530000000
-0.018559647507421312,0.6107040439636782,0.5303657129829648,901535000000
-0.04870557361060339,0.5450472405927278,0.5300697496382596,901540000000
-0.15905215038815218,0.6095695439746359,0.5305887228409273,901545000000
-0.042482462477408806,0.6452603447294839,0.5310125730689218,901550000000
-0.038374915300778425,0.5783461277486444,0.5310602433664353,901555000000
-0.10997639749781908,0.6043495181527176,0.5311737717902697,901560000000
-0.03545719825140888,0.6154206425499007,0.5315560061893835,901565000000
0.0020552337034930174,0.5659327715275048,0.5320234025444108,901570000000
-0.10386123072348269,0.6101079227680422,0.531810742420727,901575000000
-0.01043181750321771,0.6291341879891983,0.5321154428255466,901580000000
-0.02222140724123694,0.5731382645562162,0.5324594237808801,901585000000
-0.1322739170898324,0.5703222895827653,0.5329146303687713,901590000000
-0.024509403700026307,0.6123392275975321,0.5337212846774576,901595000000
-0.05704323497297803,0.5247500767902703,0.5344061442609023,901600000000
-0.1043340423742558,0.6437726272443313,0.5351807823563651,901605000000
0.010602187412779067,0.6410993396096037,0.5369393131535718,901610000000
-0.028266823791418032,0.5599701763338281,0.5375125527933544,901615000000
-0.16497614921922518,0.5952270051173336,0.5384116414585695,901620000000
0.06895995473398298,0.5881148314215034,0.5398982395428099,901625000000
-0.0899944127556146,0.5990589297249177,0.5407160285048491,901630000000
-0.13279548853834394,0.6187386658903976,0.5413552911401993,901635000000
-0.02427380095182176,0.6313914360225292,0.542477612627077,901640000000
-0.0387381782371798,0.5915971865669322,0.5419791275433907,901645000000
0.00797588858125483,0.617847401849006,0.5422992538062693,901650000000
-0.09362062375877919,0.5700502049184439,0.5422770495364239,901655000000
-0.11120868533336142,0.6153369951534027,0.5414076051695246,901660000000
0.0185564276253971,0.6049618559144366,0.5410531174126986,901665000000
-0.09660919175705455,0.6000184055069145,0.5401730046061787,901670000000
-0.1248501617534367,0.6146479877209272,0.5397747591825484,901675000000
0.047464700834267425,0.60055183802297,0.5391365693093881,901680000000
-0.06935047263471844,0.5644621003479323,0.5384734657732682,901685000000
-0.11897542090966572,0.6127891229319098,0.5381056408240348,901690000000
0.01722187629606322,0.6222463307887549,0.5385129446994744,901695000000
-0.050447439076045944,0.5743093650366694,0.5383688035713987,901700000000
-0.11837890258508382,0.6332175678251468,0.539053546529869,901705000000
0.007058103679177691,0.6249217027429257,0.5394579047004613,901710000000
-0.020897845927886533,0.5680416171048293,0.5403802048550841,901715000000
-0.14690223463655583,0.609923981705255,0.5411588439844873,901720000000
0.02508392199783926,0.6272198583867133,0.5416005248178647,901725000000
-0.0145589940434547,0.5741288732199294,0.5420970724867646,901730000000
-0.16232158324970436,0.6001480877365498,0.5424814739349196,901735000000
0.022119184445112478,0.6035401705109352,0.5433971553852082,901740000000
-0.06236772400822018,0.5940750171297496,0.5439064780895908,901745000000
-0.11333715334969974,0.5943676289340628,0.5436756922136102,901750000000
0.011697001021677365,0.611456882639064,0.5439141629366079,901755000000
-0.0870470886964927,0.5705097232326434,0.5443912894887686,901760000000
-0.08190918149185061,0.6232205056692236,0.5437750752719471,901765000000
-0.023960684832553394,0.6295378462874446,0.543998199263451,901770000000
-0.0740479215867861,0.5843430815771743,0.5441939877442709,901775000000
-0.057419467556424506,0.623710682484902,0.5429945879473901,901780000000
-0.09536379705994769,0.5996994210391422,0.5430302594049773,901785000000
-0.0013321466862087367,0.5947933097280802,0.5431186906347925,901790000000
-0.06411239378390765,0.59429227314912,0.5428629612413846,901795000000
-0.0778677104941524,0.6079209724452205,0.5426180683286054,901800000000
0.11696378851839365,0.6269414911987586,0.5432449992194364,901805000000
-0.0995687212089484,0.5794603143724136,0.5431967671434214,901810000000
-0.1312407269358321,0.6099221161824726,0.5422081761805886,901815000000
-0.005243712945070422,0.601180121221266,0.5428783897321718,901820000000
-0.009505547370673164,0.5463354088789372,0.5423763604438586,901825000000
-0.1293142480806927,0.596083442861789,0.5417817043757404,901830000000
-0.11838487372778193,0.5868142707660873,0.5413159093298691,901835000000
0.05601808603062382,0.634920139368751,0.5421556595607244,901840000000
-0.11458375583911558,0.6055173967158352,0.5408514243819958,901845000000
-0.11654098608166846,0.6042762025800139,0.5415805473242954,901850000000
0.12989481034826791,0.5424492817664676,0.5412177525337931,901855000000
-0.1209912625797438,0.6134692694016647,0.5407800007006803,901860000000
-0.155256336221785,0.6251255432462547,0.5410094699178323,901865000000
0.17612468311402288,0.5636538881589112,0.5411295184686518,901870000000
-0.19919330623003914,0.6229119860726241,0.5397965909198292,901875000000
-0.14429967328805088,0.5884192378503632,0.5396686907738705,901880000000
0.04522836771740514,0.6295069937182102,0.5402270219631116,901885000000
-0.13988885158517045,0.5819259591299645,0.54004133202451,901890000000
-0.13913386243870066,0.6021089668763647,0.5408965391989794,901895000000
0.18131845282957432,0.5816692489705424,0.5419201084609505,901900000000
-0.16221916992422858,0.6142883608490687,0.5420735730926033,901905000000
-0.15619842451386862,0.5979792408049684,0.5432683202064085,901910000000
-0.04709509902529112,0.5620207532074567,0.544203411435519,901915000000
-0.036181856132569634,0.6641063488594239,0.5447104105843849,901920000000
-0.10734048860245995,0.6340228066611044,0.5460765145974082,901925000000
0.012473829884162919,0.5709175296546429,0.5475933769357363,901930000000
-0.04777970560896213,0.590368613826397,0.5478630445446072,901935000000
-0.12202405230345406,0.6012094780037823,0.5485232200336769,901940000000
0.06298947159336131,0.6183873746447471,0.55000222509482,901945000000
-0.07379925793447357,0.6414872396048517,0.5499665332859722,901950000000
-0.09493556665036046,0.6131168869814868,0.5504764830619795,901955000000
0.05063507701091428,0.5776245305623675,0.5507130879886175,901960000000
-0.09600196744139686,0.6053129491483229,0.5503140556757533,901965000000
-0.0929495338164624,0.62202196260173,0.55033228395376,901970000000
0.05371606859784985,0.6183264717076863,0.5499747329304379,901975000000
-0.12333553181557827,0.5535416445973509,0.5492973810224027,901980000000
-0.08679627073311875,0.6299361368590782,0.5488692563262362,901985000000
-0.0012769022611532769,0.6010316071992304,0.5491423636496359,901990000000
-0.09257087352582981,0.5810793366665938,0.5478088590247395,901995000000
0.012499123271106218,0.6053769000766278,0.5478685165340585,902000000000
-0.09276683369646654,0.6222141251308116,0.5481782675819118,902005000000
-0.0992930237274995,0.6067646030315998,0.5480126563840013,902010000000
0.02492782750205566,0.6057558817178277,0.5488619359496761,902015000000
-0.06085353113142703,0.647530718355002,0.5490065431030461,902020000000
-0.08135211593960251,0.6679368016224487,0.5489874832821041,902025000000
-0.0267798528760408,0.6058515324269665,0.5492196976047359,902030000000
-0.05980495773826246,0.633577209369645,0.5504458293195426,902035000000
-0.0768511511662312,0.6176708514758763,0.5497708494594109,902040000000
-0.10860711715877963,0.6140119222421787,0.5499934290491165,902045000000
0.11056716454514666,0.6016434368396834,0.5504891881208662,902050000000
-0.12120045824251612,0.5982991510106784,0.5506483617916491,902055000000
-0.09321185730726887,0.6108874895488827,0.550699133775372,902060000000
0.04321284093505556,0.5977194236237823,0.5514303582249755,902065000000
-0.060803901716580254,0.6294425087839967,0.5510641880539608,902070000000
-0.11867413336934063,0.6065253924228484,0.5521131559727905,902075000000
-0.010522953880279554,0.5930605028274369,0.5522591686681937,902080000000
-0.05252923651346675,0.6214530727184872,0.5531256553382893,902085000000
-0.10127705866241636,0.6497168422881215,0.5529199246218586,902090000000
-0.0010077942895705837,0.6372184372290055,0.5533228176936907,902095000000
-0.050648610041094846,0.6393569981307269,0.5535979488967395,902100000000
-0.1396891561033059,0.6170985550539869,0.5535049590365954,902105000000
0.049329285039779625,0.6741781791151287,0.5540543262290468,902110000000
-0.08917780026468512,0.5777539443328075,0.5545256107890176,902115000000
-0.15529996737507948,0.6043333981931971,0.5537318954536725,902120000000
0.04366652783813778,0.6174516918318378,0.5538075985870088,902125000000
-0.05668745777494623,0.6142055191309626,0.5532704997256469,902130000000
-0.13958478201339658,0.6475573156898693,0.5515457713562425,902135000000
0.04035652734352233,0.5992948571341566,0.5516466804042423,902140000000
-0.1374732980459079,0.596459859786422,0.5499165943420655,902145000000
-0.1377050075377724,0.6057963607395761,0.5494102902648399,902150000000
0.0237781972340887,0.6055870249576986,0.549086687154343,902155000000
-0.138836313814573,0.6137759512977509,0.5481036033100591,902160000000
-0.14932978183918522,0.6045236251112462,0.5474700513063904,902165000000
0.03865395060036879,0.6397079338770012,0.5474645830543576,902170000000
-0.04477998222193234,0.6221161108066036,0.5476120919472747,902175000000
-0.15703843656791516,0.5628724199242683,0.5469279842795579,902180000000
-0.10934427182286185,0.6628008950764877,0.5478606868113417,902185000000
0.127036348322921,0.6607576768895504,0.5476879263505556,902190000000
-0.13593608393690476,0.5054921905086184,0.5474227417143392,902195000000
-0.12591253017064438,0.6497041773841229,0.5479151077460276,902200000000
0.2073131241296045,0.609255413092163,0.5478924872278106,902205000000
-0.1489055366531744,0.6183492263380443,0.5473424426219344,902210000000
-0.16482060417008706,0.6265830812675202,0.5468409970376906,902215000000
0.11924176090393378,0.6403235740860056,0.5477130225643502,902220000000
-0.09232496570735384,0.6123152932265358,0.5473794191989074,902225000000
-0.1151147471425611,0.5767798650695567,0.5472000968746977,902230000000
-0.10659608307883667,0.6440124109944824,0.5476218012816356,902235000000
0.14803547234964137,0.5831490674876788,0.548575772329873,902240000000
-0.2171802088148244,0.5736475757848858,0.5483750394304766,902245000000
-0.19538858648106514,0.6259840029692197,0.5493628378539341,902250000000
0.1743065009823734,0.6358462657063254,0.5498093532069349,902255000000
-0.18253916526687738,0.6080122380953425,0.5497731194925357,902260000000
-0.10971133405672985,0.6046217274727934,0.5489950929647537,902265000000
-0.14830777293949685,0.5852114608848933,0.5501830289941467,902270000000
0.10913148965935646,0.6469876193569023,0.5505315526020074,902275000000
-0.18698458028837184,0.5081642413298001,0.5500334957505119,902280000000
-0.13076870741478577,0.6378415995804869,0.5508880042481905,902285000000
0.16442108782994458,0.7104511844599699,0.5509015904663187,902290000000
-0.1347887982872425,0.5399957024753279,0.5508124697290029,902295000000
-0.1721620884934726,0.6529937911403235,0.5511942790275554,902300000000
0.23735245524564136,0.6472127898769034,0.5517082155145252,902305000000
-0.19092777654337595,0.5605620197666303,0.5516622331349915,902310000000
-0.142056974937258,0.6518262580280637,0.5515487742006063,902315000000
0.10998816195402666,0.670024352681993,0.5526395116159799,902320000000
-0.13750024129450272,0.5318872723876592,0.5527332991575161,902325000000
-0.15473871694121555,0.6277867738178823,0.5541418152834366,902330000000
0.13841761132348473,0.7009456973742934,0.5560796511893956,902335000000
-0.0965080743859017,0.536121200739357,0.55694261332376,902340000000
-0.17588413795439284,0.6398668807492567,0.5583084107851518,902345000000
0.030250398151695907,0.5656381276905509,0.5601382646793996,902350000000
-0.036841421191944286,0.6222896290190179,0.5609975040786662,902355000000
-0.1813444739958116,0.6562519405282928,0.562043964888936,902360000000
-0.0344289479945002,0.6426991031573126,0.5636408826319402,902365000000
-0.07673681606411939,0.6186366612297187,0.5648435416017032,902370000000
-0.014855229722650756,0.6567280155591806,0.5654481076670723,902375000000
-0.04861263049689264,0.6809651088067497,0.5660241142611545,902380000000
-0.10643366811459881,0.6241159258598465,0.5659886499532791,902385000000
0.0416219882469901,0.6006747455366385,0.5663904522792546,902390000000
-0.08157243614252085,0.6426435504692216,0.5659575138305872,902395000000
-0.11624279432693882,0.6106896872328442,0.5655269000380306,902400000000
0.036618885728687794,0.5913141899376838,0.5650142817271134,902405000000
-0.0588839678384159,0.6021760685165237,0.5644276383801131,902410000000
-0.12795995436883528,0.6625822522414707,0.5637185445054966,902415000000
0.028132725989645415,0.5985449799322059,0.5637000317864577,902420000000
-0.1023856076847628,0.6213480403793482,0.5629723889601431,902425000000
-0.10063300778238932,0.6412623699977124,0.5622775482849013,902430000000
-0.04093664241954018,0.6108825682890027,0.5622647152205477,902435000000
-0.05223279363116323,0.6140831664331563,0.5625665754772253,902440000000
-0.014716652330400655,0.6103989741299386,0.5635462099009378,902445000000
-0.0555839074630119,0.6276958072430592,0.5639095345161721,902450000000
-0.09153741828136876,0.6122375662450118,0.5635633362152788,902455000000
0.00200986087670069,0.6193634542578615,0.5649962814429472,902460000000
-0.01211510155962522,0.6813906516349914,0.5659020581864711,902465000000
-0.12081485915517157,0.6341857426743996,0.5659252261582122,902470000000
0.031803081874705603,0.6300994658802114,0.566637696529053,902475000000
-0.09139816986773167,0.6414859060843933,0.5670882425509379,902480000000
-0.10532394954994385,0.62600204761209,0.5669733839567094,902485000000
0.003251421792059273,0.6047288616678245,0.5680590509664272,902490000000
-0.03314973693461108,0.6491502306069042,0.5678776616860254,902495000000
-0.103047808578286,0.6248396118875373,0.567551157582367,902500000000
0.017110466939614884,0.613514670254291,0.5685179331393999,902505000000
-0.05678987338661298,0.6700998656173396,0.5680786969732348,902510000000
-0.08377658493315666,0.6156027536656281,0.5674446882177473,902515000000
0.013994457757446838,0.5946336034214739,0.5681755074428759,902520000000
-0.07136382940574104,0.6690498352551891,0.5676569326262132,902525000000
-0.0879526381247224,0.6108044197322888,0.5671453508149552,902530000000
-4.3331429320028064e-05,0.5788655616401082,0.567249388654678,902535000000
-0.04731716824293508,0.7014858018184639,0.5677538692559073,902540000000
-0.11255420292785387,0.6245003974642914,0.5673873464736677,902545000000
-0.042769177907082206,0.6133956539587478,0.5681341452294295,902550000000
-0.04720751977710357,0.6731238212717606,0.5689576569682309,902555000000
-0.11764820679681287,0.6680948150655748,0.5686120463613451,902560000000
-0.09038443069226654,0.5825809737875004,0.5689289262944095,902565000000
-0.006113023618781987,0.6487043409780873,0.5702420495580078,902570000000
-0.10864241855999088,0.578906284959948,0.5699123124980483,902575000000
-0.020550417761947666,0.6119974185434908,0.5705386910150174,902580000000
-0.004235619077836257,0.6948720993272152,0.570615529449738,902585000000
-0.13112030575256328,0.5899540809429341,0.5701727356739451,902590000000
-0.0012129603720914062,0.6043492972069081,0.5704123403026966,902595000000
0.002493555935782363,0.6772604960650024,0.5702134219949128,902600000000
-0.15499313030743053,0.6259430926232399,0.5692918579185253,902605000000
-0.015406161738439002,0.5813118025245071,0.5693160202229773,902610000000
-0.01786905851394242,0.7062762591484439,0.568503273530962,902615000000
-0.1394353151959393,0.6053174442919914,0.5676662447276932,902620000000
-0.002631640716489439,0.5720113382557683,0.5674632869757504,902625000000
-0.021382489585718287,0.6891182492494533,0.5667575446241909,902630000000
-0.18274796890230904,0.5438088114680651,0.5662620714388524,902635000000
-0.02449067469591029,0.6021144381019539,0.5666798828815609,902640000000
0.01484068121376713,0.7018369452418334,0.5668129202181306,902645000000
-0.18075290134156188,0.5710717913614205,0.5670022778940977,902650000000
-0.038871759949948854,0.644554295192445,0.5678668530889772,902655000000
0.04199986390850355,0.7068692199890817,0.5679499273658006,902660000000
-0.17348341441167942,0.5745452986585716,0.5682280354656936,902665000000
-0.018203978560355487,0.5952932236224814,0.5694236403987083,902670000000
-0.08018938043981584,0.683168236220823,0.5700029110471548,902675000000
-0.13141951335707064,0.5925549338580304,0.57103243516365,902680000000
0.07316394034824336,0.6309948649834667,0.5719050552474126,902685000000
-0.019069605503714233,0.6727113882766285,0.5727205309128607,902690000000
-0.1361042917824653,0.5966207945304012,0.5725115911838038,902695000000
-0.038121814698353,0.6138904559217139,0.5729870120285862,902700000000
-0.043163487007872835,0.7240616031206261,0.5736214469083092,902705000000
-0.15817473337154286,0.6394097046917336,0.5737186515515359,902710000000
0.021039472975246123,0.6150845436427085,0.5736866474409584,902715000000
-0.042550995920123194,0.6855652071300093,0.5740074810743805,902720000000
-0.13715629949329072,0.6006186602099856,0.5743121096807902,902725000000
-0.014531838211207002,0.6177335133616726,0.5742235235562837,902730000000
-0.023123711513428354,0.6967995405081676,0.5743991791290309,902735000000
-0.1395629314400164,0.615933098393299,0.5740797791887111,902740000000
0.032783345868045474,0.6151593316945307,0.5748829781023825,902745000000
-0.08633038243850624,0.7075711746062398,0.5752501078871061,902750000000
-0.13107138209310704,0.6214774374943461,0.5750511788099001,902755000000
0.009328984868185482,0.5968163028621878,0.5760302821024569,902760000000
-0.011935817215334567,0.742715187840317,0.5765311778904378,902765000000
-0.12012506188306143,0.5775849605133806,0.5763732056624981,902770000000
0.0016510144002241135,0.6069955905066091,0.5769884150874564,902775000000
-0.10609518025298109,0.7288383510158956,0.5767896103319381,902780000000
-0.1174621121453054,0.6062687717090475,0.5763881569488473,902785000000
0.10516715513631925,0.6495959437548697,0.5767802893097901,902790000000
-0.08579353262330636,0.6943366879816023,0.5764203537116286,902795000000
-0.10584886540490006,0.5894504229214914,0.5755962075060691,902800000000
0.031030860031951813,0.5549508902583856,0.5761046650509176,902805000000
-0.0964848117917636,0.7158690162805638,0.5758107350777892,902810000000
-0.052695134566584395,0.5756635618353414,0.5764186877435452,902815000000
-0.037288676264256596,0.6806993954676357,0.5771047087022886,902820000000
-0.12434415299009818,0.5922176780111591,0.5772487737094509,902825000000
0.0029820228544844233,0.5796306966991385,0.5782093552944888,902830000000
-0.03433703898441902,0.7534886784151177,0.5790490350528427,902835000000
-0.12897510330437112,0.6420759933642997,0.5793390011537051,902840000000
-0.11479267543326752,0.6388668508060334,0.5798243569156487,902845000000
0.11724010024070089,0.6270965412938186,0.5808088395805422,902850000000
-0.13942441972089362,0.6915989632949575,0.5802969218764643,902855000000
-0.1085946943037371,0.5678801381134607,0.580501140043792,902860000000
0.006686224965546657,0.5792288221759978,0.5809397390562832,902865000000
-0.0029552282139691344,0.7675926432087504,0.5808496065678925,902870000000
-0.16092721728460552,0.6092286675511752,0.5799580435562419,902875000000
-0.008422292962655016,0.5799957116171052,0.5793718232963012,902880000000
-0.0009489607509554146,0.735178874243492,0.5796963403770223,902885000000
-0.08758533000286711,0.624669601270094,0.5790057977146039,902890000000
-0.032572512464903954,0.5818817335760774,0.578620226282009,902895000000
-0.017812826916695064,0.757865665142057,0.5784519648279577,902900000000
-0.13111829076085604,0.6169046697400572,0.5777988796280749,902905000000
0.09156009282549755,0.6063213261811512,0.5781549951365148,902910000000
0.029350865347907637,0.7484746186245166,0.5772489999602722,902915000000
-0.22208669452222354,0.5765721882183246,0.5767267142631342,902920000000
-0.010423586358375644,0.5945372238355513,0.5764460263028405,902925000000
0.029578776372523655,0.765653599352511,0.5753527864364866,902930000000
-0.20767135037769707,0.5897239182107842,0.5746526932314507,902935000000
-0.13096939689558976,0.6366490396485338,0.5741084512536754,902940000000
0.17194303669720165,0.6749511588317945,0.5739034160308721,902945000000
-0.1992079618037719,0.5764358645764485,0.572783327190783,902950000000
-0.14475263990099627,0.6358408666126856,0.572386598098474,902955000000
0.12502067238507097,0.6819661308685953,0.5725029373481775,902960000000
-0.20403298574324477,0.601605927110419,0.5716802683905718,902965000000
-0.08288707510398052,0.6378564002036288,0.572030535246104,902970000000
0.14174999702845567,0.658082360572795,0.5718464419394774,902975000000
-0.24240868727248066,0.5820004420940588,0.5710782397691005,902980000000
-0.10697194632539667,0.6845965052122938,0.57200266877522,902985000000
0.15276678445520722,0.6384320792600081,0.5714755169207252,902990000000
-0.1983656066521637,0.5829142889137843,0.5703462890449261,902995000000
-0.164240434385839,0.6414136553606418,0.5706106556106074,903000000000
0.2461379224211259,0.5369103744110713,0.5717776916111924,903005000000
-0.12642945719280094,0.6849123788502333,0.5706576508528434,903010000000
-0.22068901435607552,0.6319106154113192,0.5708146861530669,903015000000
0.14513951547129747,0.5527298930599492,0.5723876483283054,903020000000
-0.04490171763335736,0.7842669341406011,0.572568409395738,903025000000
-0.2500615317866652,0.5901330770797243,0.5731928531291292,903030000000
0.034214384590524505,0.5112718836739941,0.5746645955244621,903035000000
0.052576470842069026,0.6958232151559447,0.5753827204162576,903040000000
-0.21179480974542417,0.5903142167413395,0.575399676660879,903045000000
-0.04857492446196551,0.6194033740382983,0.5770574064048953,903050000000
0.0822776762968626,0.6449495498343522,0.5783520614370142,903055000000
-0.1894815439913735,0.5795515873466328,0.5797296073019054,903060000000
-0.07536612469621354,0.7052848567565209,0.5814243738205833,903065000000
0.12353661511364657,0.5990192100911219,0.582658845715565,903070000000
-0.18132159693254638,0.5706723218137377,0.5838726429768013,903075000000
-0.09673766300246327,0.715112866255179,0.5858155568727633,903080000000
0.049725114757935986,0.5503565111804559,0.586875186296961,903085000000
-0.14362396536143138,0.6325503640554537,0.5881997644020446,903090000000
-0.06405506618063465,0.8689315336714234,0.589858109610503,903095000000
0.06494935516361808,0.4108091930450851,0.591280924841226,903100000000
-0.13065388270767034,0.6647066923129745,0.5925123284376566,903105000000
-0.018443267683748852,0.9200116358078742,0.5937562629122418,903110000000
-0.07305737958486186,0.5012265530003168,0.594667629248469,903115000000
-0.12095385816092678,0.69729704832436,0.5949651485655586,903120000000
-0.023435366215184075,0.7807548189550578,0.5947647723232804,903125000000
0.05004760415492857,0.47771205135177386,0.5950615524345799,903130000000
-0.0983217938023922,0.7040954540069092,0.5946615528947581,903135000000
-0.03969714103343523,0.7728633297709652,0.5939056037674696,903140000000
-0.10275015893785533,0.4897764994078557,0.5932131393846352,903145000000
-0.07267692779585153,0.7000246636413041,0.592796314514258,903150000000
-0.023522421915129935,0.7492200871818994,0.5922937745591621,903155000000
-0.03129593813507046,0.4957137336575511,0.5913789873789662,903160000000
-0.13906029004331186,0.682712162282728,0.5909883016128499,903165000000
0.009446949196782971,0.7214137566001102,0.5905085284448947,903170000000
-0.019402445021775343,0.5644159197542011,0.5901418671889106,903175000000
-0.1499387673354286,0.6394744564495939,0.5900225067428145,903180000000
-0.08104645034998699,0.6774274440115596,0.590175239873517,903185000000
0.11490405687721388,0.7410995964821874,0.5897969208029463,903190000000
-0.1815943912533154,0.5221655251759922,0.5898230153238261,903195000000
-0.09576356500083974,0.6639950600899763,0.5898772696131152,903200000000
0.14066312234057626,0.7909171716753328,0.5898497009056574,903205000000
-0.12209503548370453,0.5433856335820475,0.5890805631791222,903210000000
-0.1068883797770876,0.6360207575221751,0.5888296211202171,903215000000
0.07874222789101537,0.7696744565213418,0.5887429542116674,903220000000
-0.09566546675430491,0.5067803662775469,0.588224776582362,903225000000
-0.11500153480012973,0.6347947865511498,0.5885898201675713,903230000000
0.09306009216064563,0.7766505483947024,0.588797290816675,903235000000
-0.13469445596013996,0.5379313632748669,0.5881174737065018,903240000000
-0.11148308953603164,0.6582339231341832,0.5883005112110632,903245000000
0.15974742061977715,0.8067626028592896,0.5885074265609264,903250000000
-0.1828571685600114,0.5183977206377269,0.5879659424851841,903255000000
0.009279551140430012,0.6452904045545035,0.5888798198494701,903260000000
0.082239955959771,0.7602007741599487,0.587588472523211,903265000000
-0.19630510153323638,0.5229845713425277,0.5873901649537252,903270000000
-0.1221818226888829,0.6490754436509463,0.5876596006292827,903275000000
0.10282982429748083,0.6777289114782477,0.5872005114304897,903280000000
-0.06917271619643534,0.6006972664678454,0.5864987751784111,903285000000
-0.13467117629179887,0.6312473147388653,0.5866611420905731,903290000000
0.059600130308247345,0.7226202189749866,0.5868531164328497,903295000000
0.029184520136841995,0.7325304219426167,0.5858854020682703,903300000000
-0.21701875112300986,0.5377769876263746,0.5858213438976444,903305000000
-0.012165320284983138,0.6657932562171717,0.5856509352895658,903310000000
0.035946259368416486,0.7551774434145077,0.5847040356223093,903315000000
-0.2152523655336688,0.561510839333944,0.5850589727196964,903320000000
0.02589807240063561,0.6643971836473632,0.584469558075357,903325000000
0.05658900801461095,0.7565593688590774,0.5843212358428291,903330000000
-0.13315164836962803,0.518704265921135,0.5838343030697852,903335000000
-0.058891920214668894,0.6568150307865466,0.5833569497262922,903340000000
0.04081501759710433,0.7634824518153797,0.5833188547756009,903345000000
-0.08396891963346353,0.5490346422554884,0.5824515585103474,903350000000
-0.08038636110611297,0.6679168437322714,0.5822256885117167,903355000000
0.04156106745815753,0.7510707190417419,0.5821866828847629,903360000000
-0.10255191976854626,0.5358085097708818,0.5815001041740875,903365000000
-0.07058769738766656,0.6840718857634943,0.5816493093649522,903370000000
0.02705177525545278,0.7493527483571919,0.5816975369177388,903375000000
-0.14295912425014717,0.5611554087529096,0.5810296192308729,903380000000
-0.04783522350047626,0.6685406275258402,0.5811607575215452,903385000000
0.04604092260345092,0.7114229633045005,0.5809151408391705,903390000000
-0.1504407356463533,0.5516572956518994,0.5808869260721728,903395000000
-0.03240621555143908,0.6620047575154488,0.5814065028773803,903400000000
0.01779605164585768,0.7403930317685122,0.5807612055271969,903405000000
-0.15845825617754788,0.5453176476189605,0.5810449931775117,903410000000
0.00919886139527186,0.7552486599636835,0.5813017402652003,903415000000
-0.004593386963778451,0.6452448937243377,0.5807320715170395,903420000000
-0.0843502893015808,0.5790332010544039,0.580729292583967,903425000000
-0.09589647545561335,0.6701299603769154,0.5814321697689872,903430000000
0.02495568741205001,0.6898078327315695,0.5806497334339915,903435000000
-0.02678358398081916,0.5843901415172748,0.5805494174313615,903440000000
-0.12398338194312912,0.6587710570410793,0.5808392888573972,903445000000
0.007372310028351804,0.7316344691113301,0.5805885759178245,903450000000
0.031935961690598945,0.5320053143500338,0.5806343327505139,903455000000
-0.1663244454557004,0.668288768481173,0.5804444946882484,903460000000
-0.05161488101434571,0.7292774979738114,0.5804795497041882,903465000000
-0.06289948551426637,0.5406631853528611,0.5801672817492857,903470000000
-0.07343105524344162,0.6754902550718032,0.5799384595657315,903475000000
-0.023773671541265754,0.7435388987397717,0.5798175174945106,903480000000
-0.0857064154039863,0.5717108400121538,0.5795779345423248,903485000000
-0.06862497304653792,0.6380591642987702,0.5801052102192109,903490000000
0.06133845727734865,0.734953091964441,0.5797828981122322,903495000000
-0.11118244419043423,0.5857017096620508,0.5804823418437008,903500000000
0.010662975314501392,0.7422590578941277,0.5811148534336802,903505000000
-0.05178265790795544,0.6433880286114472,0.5808242594317312,903510000000
-0.09753543518414952,0.5985824288615172,0.5810028369086532,903515000000
-0.09713656430737919,0.6473150790197532,0.5812712789926129,903520000000
-0.0038955783880567432,0.6978383435374893,0.5809968331038855,903525000000
6.708890768457321e-05,0.5803909012083046,0.5810951420771503,903530000000
-0.16349933653465756,0.6475328476135422,0.5811774044049369,903535000000
0.009681085535336652,0.7408901788722982,0.5813142704495007,903540000000
-0.17758899932806002,0.5004155746380539,0.5816660124113446,903545000000
-0.039004800222092136,0.7095578580944248,0.5817507008566709,903550000000
0.012184900728748988,0.717269084326156,0.5820030995864067,903555000000
-0.0935154858259224,0.5645014421124865,0.5819614806109973,903560000000
-0.05726703388165699,0.6214421077323851,0.5821576146851576,903565000000
-0.10945275116476763,0.7062881791377101,0.5829939251853392,903570000000
-0.0014190986345879852,0.7282317339391636,0.582829869240973,903575000000
-0.10152205242385354,0.54556417682297,0.5825731159735628,903580000000
-0.1184099450387141,0.7012302305738988,0.5834512799629319,903585000000
-0.018155244435923985,0.7024174091658054,0.583343967392678,903590000000
-0.08749962133270678,0.5691872958148412,0.5836014641062425,903595000000
-0.0814209639262851,0.6737756390114366,0.5839181832999539,903600000000
0.01533289266536226,0.7302381702427683,0.5834701948030251,903605000000
-0.16227875650311874,0.5644281426193375,0.5836682422446062,903610000000
-0.011795624966938647,0.6453510428067443,0.5839096658941997,903615000000
-0.01035249042369403,0.7132654622478878,0.584337001678178,903620000000
0.015249046257714949,0.6010215521552643,0.5842772936618121,903625000000
-0.15506502043166434,0.6580792269812795,0.5844029409807526,903630000000
-0.011404067636258017,0.6921762984116767,0.5844537971982612,903635000000
-0.05908527831024644,0.5513200944638543,0.5841985844262414,903640000000
-0.08666012457162525,0.664075279205,0.5847233051527372,903645000000
-0.04584039189381442,0.6897765567344902,0.5848076400948841,903650000000
0.10810445363832788,0.7045970797175826,0.5841466661066685,903655000000
-0.21451538170282655,0.6099200364050271,0.5855230475454845,903660000000
-0.09243640222825367,0.6879611400364527,0.5859676837962843,903665000000
0.04189255999848674,0.7110525614471289,0.5857844589977975,903670000000
-0.10731700683377784,0.5563857307127892,0.5859032885956021,903675000000
-0.08579529783919503,0.6745068694710656,0.5861738340913799,903680000000
-0.013809566141068784,0.7385013945858024,0.58591246570625,903685000000
-0.02038183550790806,0.5360500549720253,0.5864032382027926,903690000000
-0.14713946505454004,0.6689553765312917,0.5863562773909311,903695000000
-8.954617464718498e-05,0.7157647442315218,0.5861753497056361,903700000000
-0.03570522731051981,0.5581958492773446,0.5861925627371836,903705000000
-0.1329203702666772,0.6713023961742299,0.586627899814648,903710000000
-0.028057674289716186,0.7120659251026665,0.5866174971889905,903715000000
-0.06014056115113067,0.5373456813144109,0.5870705223360105,903720000000
-0.1080774183389239,0.6949368441899513,0.5873930413289435,903725000000
-0.055299132432020184,0.6702583187663643,0.587813887779376,903730000000
-0.04045245263160294,0.6400469714432182,0.5875151164306371,903735000000
-0.0057060697329256865,0.6361085156383417,0.587893516573912,903740000000
-0.061769171055708914,0.6603527489128874,0.5886023531562453,903745000000
0.022264105426237607,0.7303385750046714,0.5886948436504508,903750000000
-0.13986603311070608,0.5519090415183712,0.5883085168745387,903755000000
-0.04859894920904517,0.6609791339099441,0.5897944167858385,903760000000
-0.01670160044235642,0.6535521887235711,0.5900087024713918,903765000000
0.013155406325566155,0.7167010643089294,0.5898301896317304,903770000000
-0.179814842963904,0.6091646566275615,0.5905332828780033,903775000000
-0.043188137505369546,0.6591802947045194,0.5908764015647079,903780000000
-0.05486297246477252,0.678469923542617,0.5912620685091196,903785000000
-0.0495247748109347,0.6584265018201891,0.5911318967703806,903790000000
-0.07736447168619498,0.6486897041616855,0.5918144763617136,903795000000
-0.050655911528889715,0.6915941224381734,0.5919032830629949,903800000000
-0.04180894159623239,0.6865431850322834,0.5920341283947007,903805000000
-0.07234378740357615,0.6583740754830705,0.5923358812990143,903810000000
0.00013792193683801954,0.6376080998598764,0.5923512863803501,903815000000
-0.04971905755879695,0.6946420395184861,0.5925879315446305,903820000000
-0.06211900069975255,0.6658098812469162,0.5927819217539665,903825000000
-0.05483909711911658,0.6679428982842622,0.5926754291134778,903830000000
0.03288739631748286,0.6548792988639021,0.5928215625887203,903835000000
-0.07528901354442888,0.6895528713479079,0.5930289051388715,903840000000
-0.08091139721070298,0.6899356639457225,0.5931652545285734,903845000000
0.147630538851825,0.6674312336990056,0.5930417225378932,903850000000
-0.19681651742796713,0.600556255074965,0.5932677130459336,903855000000
-0.08852533757418629,0.6708852271241563,0.593557819054767,903860000000
-0.03129856617819127,0.6724397198019,0.5936780224502873,903865000000
0.0486216473718058,0.6894863248550581,0.5935609571941579,903870000000
-0.03557017970717247,0.5535096843176063,0.5934287650386773,903875000000
-0.14448418395711474,0.7017240569734987,0.5934282874300656,903880000000
-0.059255603636294875,0.6434334586695528,0.5934218857636533,903885000000
0.04354279718404442,0.6902512793830787,0.5936348885369584,903890000000
-0.12321449769125907,0.5606424071056791,0.5937135251323786,903895000000
-0.07049329183984751,0.6844481925416209,0.5937001668532469,903900000000
-0.0746696503150327,0.669833934158281,0.5943111714691247,903905000000
0.04611787234389591,0.6989924973496848,0.5937494596042787,903910000000
0.00744307673630781,0.550627152060194,0.5938991183014789,903915000000
-0.12659816070604213,0.7142527193431013,0.5937846969042215,903920000000
0.0033629076588187756,0.7371822147290358,0.5941585811677019,903925000000
-0.06915552981497466,0.5652729438975653,0.5944341270703557,903930000000
-0.06282309578314657,0.671918360768122,0.5933900215567478,903935000000
-0.08834495133868339,0.7167230933269527,0.5939622877987052,903940000000
0.026713774328251325,0.6964489599157913,0.5942488606450635,903945000000
-0.08670722331198273,0.6023331511744692,0.5945475308770434,903950000000
-0.0589802666961732,0.7289309475542444,0.5939725580099,903955000000
-0.13400142745254606,0.6862117959390426,0.594440787536562,903960000000
0.04319666021690653,0.6755310255513642,0.5946802563376655,903965000000
-0.10335789713020385,0.5791754737519922,0.5947830430723711,903970000000
-0.04013996312720405,0.692762008039937,0.5950087745686636,903975000000
-0.07681382870704918,0.6801922316834804,0.5957834988744637,903980000000
0.054664864612791776,0.7162953060092143,0.5954536337208538,903985000000
-0.056090675366288235,0.5383909911788509,0.5955900793742569,903990000000
-0.13820542160634053,0.6133841919118771,0.5958355152725284,903995000000
0.024941269279623795,0.7478265413970633,0.5965488878336243,904000000000
-0.10645825684549243,0.6408049549351844,0.5968014964001684,904005000000
-0.2942298344832524,0.6732805645204589,0.5974900004169272,904010000000
0.1430931195008889,0.6286439459185231,0.599467810071784,904015000000
-0.050118156680734,0.6428927489693775,0.6005273623986136,904020000000
-0.2686347264856414,0.7166904623466652,0.6017870981350236,904025000000
0.1030753388612829,0.6520641048797179,0.6045552583939799,904030000000
-0.11110364458052377,0.6383037838683849,0.6069525752902009,904035000000
-0.22964519540675307,0.6966757270515014,0.609712375780098,904040000000
-0.0322394917514559,0.7096831114925151,0.6138644525257251,904045000000
0.030949165427910527,0.6280918019321285,0.6172856368682949,904050000000
-0.19374301812578001,0.6831602763844554,0.6205541014163315,904055000000
0.07222895640967217,0.718809551035584,0.6241953118770507,904060000000
-0.07310788905008299,0.6586815237203834,0.6264497816388244,904065000000
-0.09267662326922876,0.702347736459105,0.6283033463519834,904070000000
-0.0604979116903972,0.6422310415731297,0.6298734519462245,904075000000
-0.12565797671980553,0.7232651155829566,0.6310500289046992,904080000000
-0.006400600528776166,0.698164777660264,0.6311560340814922,904085000000
-0.06215736528117642,0.6855763924628226,0.6317223108254577,904090000000
-0.004007935393223552,0.7205760497757467,0.6315996228348064,904095000000
-0.03776314507240586,0.715723326535442,0.6309684000319372,904100000000
-0.11712454254408937,0.6459556290369701,0.6299898781224804,904105000000
0.025488307984878836,0.716050410105952,0.6294039644699925,904110000000
-0.09244560908309415,0.7044488671249425,0.6280103452674406,904115000000
-0.0851185998181248,0.6364759268441383,0.6262045981022767,904120000000
0.04699787604163302,0.7177054087204984,0.6254033439712141,904125000000
-0.20104557746916546,0.684236600136846,0.6246485110758795,904130000000
-0.0654672704157608,0.7189871745387952,0.6245632999902304,904135000000
-0.0012197269916885255,0.7308496716153915,0.6251937372386596,904140000000
-0.05333259829330017,0.6182466212409466,0.6254275499613561,904145000000
-0.11770193401832743,0.7214727427582505,0.6257815018563421,904150000000
-0.017426471542375734,0.7528574797594167,0.6265931932621562,904155000000
-0.03196258745108801,0.6010579291037387,0.6277282972161075,904160000000
-0.14121481041456727,0.7331454766891776,0.6280331998189609,904165000000
-0.0212360306196568,0.7623641969511599,0.6288846539846177,904170000000
-0.08109652407393345,0.6319449992091654,0.6294622747797961,904175000000
-0.031075758841645134,0.7639351711833433,0.6299184394290595,904180000000
0.024921849762550206,0.641422830882415,0.6304233873934243,904185000000
-0.1439843777772152,0.6614660548793021,0.630321509437118,904190000000
0.050673345283920965,0.7641615879630642,0.6312244672916228,904195000000
-0.07231271612943124,0.6270536985763037,0.6301848583350701,904200000000
-0.12831097843703657,0.7451021758687542,0.6309120937056392,904205000000
0.11841726905130136,0.6481313116513623,0.6299849150733505,904210000000
-0.1523417414640046,0.666331757175904,0.62855564833559,904215000000
0.0384166651469208,0.7403574391903437,0.6274842992631299,904220000000
-0.1378802186360484,0.663942803929166,0.6261507365032652,904225000000
-0.10244169944936762,0.7580999540921572,0.6251830066341184,904230000000
0.1429004552314875,0.6301223755957078,0.6240068338092175,904235000000
-0.1587620032916509,0.7105719773961675,0.6229153113085566,904240000000
-0.004690346812243051,0.6673970837152895,0.6220612401317513,904245000000
-0.030077415086817195,0.6925799042793934,0.6208675980150562,904250000000
-0.06681283388766686,0.7272332879351538,0.6201373613229193,904255000000
-0.07097456273268608,0.6906290274642485,0.6194961764664498,904260000000
0.03320712202895068,0.663868342119304,0.6189494056649008,904265000000
0.04699221587522199,0.6803161013503892,0.6177462652409179,904270000000
-0.2206545919933067,0.6758900871328171,0.6173331634862441,904275000000
-0.03662085491440539,0.660888492085931,0.6168584962653934,904280000000
0.08532062719602478,0.7122478841825903,0.6162007764801544,904285000000
-0.2256471094282054,0.6692968472835463,0.6153096698553759,904290000000
0.007735360806037716,0.662067959771206,0.6150742095329182,904295000000
0.048230031326901325,0.6867797192082831,0.6150283908614474,904300000000
-0.12086054403959474,0.6500305797513805,0.6140734365558237,904305000000
-0.024826324872287447,0.6909873241979433,0.6136707630906189,904310000000
-0.07863848717408807,0.7088746271420205,0.6132727357732591,904315000000
-0.07804892244272744,0.6718600535500684,0.6130577338956509,904320000000
-0.009358635538102952,0.6835755314981309,0.6123570035059376,904325000000
-0.09205093658307606,0.690342201379671,0.6121750191280765,904330000000
0.04564577932715254,0.6824643997753113,0.6120838379927516,904335000000
-0.09970696972859328,0.5327092532077776,0.6115435381264652,904340000000
-0.049034133228027535,0.75166690051927,0.6116995726096351,904345000000
-0.041181242336196924,0.684637220203456,0.6118464279826746,904350000000
-0.06526234857671916,0.6593264589589939,0.6115134764541998,904355000000
-0.006943032509165115,0.7209270986340628,0.6118407240607672,904360000000
-0.10469415898503054,0.6368216884811648,0.6119410980090689,904365000000
0.08976950886719426,0.7049683017075201,0.6120283894470657,904370000000
-0.20663771287144506,0.6184743535837968,0.6121428166743622,904375000000
0.001438331140569727,0.7145314794324028,0.6121134378527715,904380000000
-0.05633305451123977,0.6654381180115829,0.6123781309994785,904385000000
0.09719765411237313,0.7039195551546075,0.6121593830545645,904390000000
-0.15445520809691068,0.6330071364700323,0.6124353094061907,904395000000
-0.023265004701443347,0.6886463260901494,0.6126189694801505,904400000000
0.04859845100235967,0.7008682258168003,0.6128474110838429,904405000000
-0.1648184820522432,0.6155139290972079,0.6128535850131729,904410000000
-0.05175542050490189,0.6694655770288442,0.6130993633530213,904415000000
-0.02409069049192007,0.7110230428288202,0.6132011773849897,904420000000
0.04075854144165691,0.6995716384813015,0.6132827207645937,904425000000
-0.21844839991167564,0.6685445987458899,0.6129235413002473,904430000000
-0.0024937064646776055,0.6741793105445405,0.613069426285503,904435000000
-0.04122533280284967,0.7449120776185499,0.6134609928047765,904440000000
0.03976079132700846,0.6920106957280613,0.6130113898681717,904445000000
-0.19056179768134696,0.5918040255503975,0.6129856263583529,904450000000
-0.04457202862019663,0.6851094833793354,0.6140253568927219,904455000000
-0.05947439719684861,0.7006384712163619,0.6137012467508307,904460000000
0.051775090442629915,0.7078981645533055,0.6136691015129135,904465000000
-0.11958095430228982,0.5660803445328048,0.6134512547426579,904470000000
-0.10749765276600193,0.7716964845516434,0.613702912908729,904475000000
-0.03294338888391495,0.6747134253646446,0.6138374629387934,904480000000
0.05735103690178746,0.6904565304765374,0.6137541970220631,904485000000
-0.08193935175160837,0.5938301745387311,0.6138030881381301,904490000000
-0.09477413145128719,0.7773047984688255,0.6141119214262841,904495000000
-0.07852664081396961,0.6602771936712205,0.6141041494330152,904500000000
0.06047189652614581,0.6683769188450116,0.614171533199364,904505000000
-0.05317497313336589,0.6510613942458665,0.6139459521012819,904510000000
-0.06959710063752703,0.7019642070860143,0.6145727005002851,904515000000
0.0461134469142441,0.7086494836190487,0.6149522068392308,904520000000
-0.10941515830189748,0.6170549691684227,0.614946034832619,904525000000
-0.09389345205927313,0.7077519355184685,0.6156660142980691,904530000000
-0.05813260508844876,0.6749760296835634,0.615611549026138,904535000000
0.053644924329723516,0.6450286366835615,0.6160424138238537,904540000000
-0.037725531147826875,0.7017142328325011,0.6156520724571523,904545000000
-0.1257556441914028,0.7008872896201692,0.6159274426957975,904550000000
-0.07831150641125303,0.6718333427704004,0.6159616664036952,904555000000
0.09845350021500628,0.6476301880197959,0.6164191343052872,904560000000
-0.1470323454074318,0.6572128092940493,0.6162685714543928,904565000000
-0.06294853094513832,0.7481850637895654,0.6164263598039152,904570000000
-0.07166366873479524,0.6694666159570518,0.6165036049613207,904575000000
0.02660890529427762,0.65522465870746,0.6166816965430264,904580000000
-0.1021959411951254,0.5630915876361476,0.6168004144471827,904585000000
-0.09578793468569718,0.7817888760925419,0.6168856884774501,904590000000
-0.065241862384363,0.691981163239475,0.6170567688448421,904595000000
0.01670511113005138,0.6782709383527601,0.6169998982293174,904600000000
-0.07747119588491791,0.6524780515297144,0.6168400313843404,904605000000
-0.08880667973989288,0.704971935098705,0.6174480882856206,904610000000
0.06375731356177988,0.7165411476471656,0.6182280480168784,904615000000
-0.08378107903942954,0.5964242196690037,0.6184391430834424,904620000000
-0.09890104551163849,0.7341601991603706,0.6188207365032223,904625000000
0.018452974303187784,0.7200727898723185,0.6189982936117994,904630000000
-0.08492521090374225,0.6221344784605808,0.6190466779975033,904635000000
-0.07137137251439171,0.7151840546765202,0.6194512953721242,904640000000
-0.04942417709632562,0.6757105444695629,0.6192015121619054,904645000000
-0.010879647995426314,0.6330075783688373,0.6194550391160253,904650000000
-0.1247144235036789,0.6457319803613589,0.6190907953468423,904655000000
-0.06323083464064135,0.6940223914779712,0.6191965753583025,904660000000
0.12259425348789131,0.6585550581935411,0.6192114001574756,904665000000
-0.21170239009442113,0.6402956975047664,0.6192830006929545,904670000000
-0.06505192507924888,0.7443940673520478,0.6189850920613839,904675000000
-0.094060427489154,0.6798870928370458,0.6194484428983706,904680000000
0.061924120797189716,0.6136377538180188,0.619741639721764,904685000000
-0.18564207119985657,0.6708588814601213,0.6199594093487353,904690000000
-0.05219816232721029,0.7872423239468764,0.6200691079650296,904695000000
-0.06261512015128375,0.6811307385839256,0.6200992671079911,904700000000
0.009529418094468473,0.6261434680313029,0.620434308824413,904705000000
-0.04957488126876366,0.689858116028617,0.6204949149174513,904710000000
-0.09586039339117584,0.7046875125667091,0.6209071920266565,904715000000
0.021433942018476954,0.6812028295033214,0.6217925138288865,904720000000
-0.1364046116708037,0.6524792483707936,0.6219571719883324,904725000000
-0.2779858564487066,0.712132596193381,0.6232599553288851,904730000000
0.09862312602345226,0.6295713273250397,0.626310557457655,904735000000
0.12927470590254841,0.6924758918826771,0.6273233798932949,904740000000
-0.2470936948078754,0.7214812198678627,0.629488375614725,904745000000
-0.1773775671975413,0.6847398845513156,0.6322375860183693,904750000000
-0.0018336741357893732,0.6259281291692196,0.6357184609544029,904755000000
-0.09863541744594322,0.772531731131397,0.639514119889352,904760000000
-0.17212791680635034,0.6855009426349629,0.6436449912577267,904765000000
0.03645557724400273,0.7083280334757602,0.6474791725762297,904770000000
-0.1074964929306736,0.7002758336848289,0.6505115394794282,904775000000
-0.07073172733095441,0.7045246227822719,0.6538298198758561,904780000000
0.00813646177339403,0.6872493519360594,0.6564962371286543,904785000000
-0.08272025110867892,0.742074736667637,0.6581956929181004,904790000000
-0.021566504938893352,0.6814426519294037,0.6593114219156391,904795000000
-0.0072554315333623436,0.6948491718630129,0.6598225423377413,904800000000
-0.11345684293500348,0.7341442977897827,0.659544913437757,904805000000
0.00640210356477584,0.7420356195677621,0.6584306858639536,904810000000
-0.12734134767439187,0.7478319423647871,0.6581927190852094,904815000000
-0.012315981201377797,0.6991227608699137,0.6570721204955733,904820000000
0.010965651241188805,0.7140996785376581,0.6570945609901488,904825000000
-0.11084579221100063,0.6976481764569661,0.6556290412116034,904830000000
-0.021915594090106152,0.7126810804400372,0.6550668716546079,904835000000
-0.0943772621939162,0.7229247993673634,0.6544574935297931,904840000000
-0.14634775014176093,0.7491315218637176,0.6532120922124364,904845000000
-0.019739608717619938,0.7079451913536456,0.6529973747380059,904850000000
-0.027290809217706116,0.6887547628601393,0.652819018364428,904855000000
-0.1262239041668143,0.7383202887032461,0.6515384842024697,904860000000
-0.05094679690174991,0.7242698279074695,0.6519944206639214,904865000000
-0.058899449325719916,0.7052124521522041,0.6522951985738575,904870000000
-0.1210163647105972,0.7242203113310557,0.6516455048404045,904875000000
-0.04690078231676277,0.7321753809076473,0.6516428056703729,904880000000
-0.06561771232252735,0.7398309557693993,0.6523888802082837,904885000000
-0.0950059380822264,0.717517061096347,0.6523901864273387,904890000000
-0.044878551434930185,0.7066318139536579,0.6535644689412039,904895000000
-0.005570172890329861,0.7103429196265209,0.653797725735986,904900000000
-0.16330786978421769,0.7542148229729546,0.6548023883851773,904905000000
0.014498022013834388,0.6899012827206186,0.6556850668560372,904910000000
-0.11494494362059997,0.7141923807354522,0.6560079610832934,904915000000
-0.03443024949528812,0.7344116681025716,0.6574321149147302,904920000000
-0.04310359446630194,0.6957570396556754,0.6588353509503626,904925000000
-0.13216859309615248,0.7531949047905314,0.6600025276197576,904930000000
0.1346875470273331,0.682729125638194,0.6611614625213017,904935000000
-0.07579537202028247,0.7555394660738285,0.6606860661184515,904940000000
-0.1807608543877582,0.7227416601439909,0.6604789268426882,904945000000
0.1306173653225188,0.7111908688536664,0.6599135493188946,904950000000
-0.1064279284817757,0.7686799271041109,0.6581398870628185,904955000000
-0.12534193630446575,0.7466999035446859,0.6564849236440919,904960000000
-0.039508563225508664,0.6912409722125543,0.6549437129123276,904965000000
0.0997384866854269,0.682168743542782,0.6530993398285291,904970000000
-0.15240065686682863,0.7219013885059415,0.6512246390206686,904975000000
-0.042777547265983394,0.6837580967923967,0.6497175226888225,904980000000
-0.03841488555496743,0.7314781213627181,0.6476844796413324,904985000000
0.0029928999377915183,0.7236311433195826,0.6467405663158041,904990000000
-0.09748254530325957,0.7181700874961673,0.6448142997796016,904995000000
-0.018233872914490832,0.6865700273738287,0.6440975323568217,905000000000
-0.012090794783877003,0.7233284625369805,0.6431410716024691,905005000000
0.16694507590053054,0.5899099812480358,0.6422982326807015,905010000000
-0.1922582943230825,0.757516221427308,0.641161157741335,905015000000
-0.0005153968683307142,0.7211921648190921,0.6402684079107617,905020000000
-0.048353773976458105,0.6966875567898143,0.6401894273245378,905025000000
0.009875189961935673,0.6548585234883613,0.6401790646571026,905030000000
-0.029720890041278432,0.7861766323945656,0.6399227322401629,905035000000
-0.07649494718944438,0.6938839558328554,0.6390759492065784,905040000000
-0.07774636705444633,0.7177881788271464,0.6384649952869221,905045000000
0.08844606085144184,0.6249058014196406,0.6385548385588495,905050000000
-0.1403788824088419,0.8045191099969725,0.6383961514063254,905055000000
-0.0897180391502597,0.7277820776052869,0.6382828926046289,905060000000
-0.07226845072051635,0.7062925847349325,0.6381438762356929,905065000000
0.06530445144482243,0.6655733085988615,0.6376566089641261,905070000000
-0.20750152591835933,0.7049986393595754,0.6379579244674444,905075000000
0.013826859334557367,0.706321879331964,0.6374892606564695,905080000000
-0.11944984569421838,0.7098290171488241,0.6372458181638259,905085000000
0.023285556612982615,0.6973104806887369,0.6367608762685473,905090000000
-0.1713798550874164,0.7317676570913375,0.636884503775271,905095000000
0.03828951121592123,0.696607246748925,0.6372189282811545,905100000000
-0.059769984647065344,0.7163042329830822,0.6369365060318974,905105000000
-0.04387791466881179,0.6993246028003183,0.6368293572856761,905110000000
0.023257077775172882,0.6953350708520167,0.6369226012035125,905115000000
-0.07054498039323906,0.7287487309824774,0.6373445687902694,905120000000
-0.07994828219419145,0.6922710831211102,0.6373713818350462,905125000000
-0.06753205661044653,0.7183489669251173,0.6375655854850864,905130000000
0.022438445153667313,0.6802603522210076,0.6381902917063451,905135000000
-0.18003099013908344,0.7242872941200948,0.6385419736318128,905140000000
0.0167364216898529,0.7282630022090046,0.6389199874790769,905145000000
-0.09932995017389631,0.728778899742851,0.6389159261655094,905150000000
-0.05729952305699284,0.7016308274075134,0.6389054330002385,905155000000
0.05662969129532762,0.6857384010750565,0.6391658485426813,905160000000
-0.06588707351781264,0.7043631182380908,0.6395250978512567,905165000000
-0.12843156552043133,0.7553920469310931,0.6393646870215393,905170000000
-0.043383637134534914,0.7135917143648122,0.6386415546114074,905175000000
-0.06936874301589863,0.7280447983577846,0.6388598285472377,905180000000
0.023209228717702982,0.7224088160766408,0.639161912462739,905185000000
-0.04958505632214788,0.6582788019147334,0.6395700339484265,905190000000
-0.04492781646583311,0.721818181001751,0.6401229298943428,905195000000
-0.05343950474835897,0.7185800635770953,0.640164347040267,905200000000
-0.019400237343442567,0.7070442623022793,0.6403789576078757,905205000000
-0.10311225901279894,0.7119460363126633,0.6403798721727849,905210000000
-0.0817743618418928,0.7161550782993811,0.6402733906062948,905215000000
0.0036878584301995344,0.7119660153628731,0.6406413820220925,905220000000
-0.008309590934348542,0.6874002712874482,0.6403620038965877,905225000000
-0.08071507515031366,0.710234185137658,0.6410754297595027,905230000000
0.022712929774968447,0.6880735177348739,0.6408299089641296,905235000000
-0.136065264435755,0.7417567154536604,0.6412416284469896,905240000000
-0.024731703352771833,0.7301947074584497,0.6410277549228448,905245000000
-0.084887142752046,0.7379158939095173,0.6415606473919546,905250000000
0.011596937277348732,0.6680900591049868,0.6410480622386883,905255000000
-0.14228292015930785,0.7530461021412137,0.6411441097277764,905260000000
0.0024314689079735323,0.7025737893737998,0.6409595183206088,905265000000
-0.13544990034442295,0.7113090708511394,0.6407776414277687,905270000000
0.016916778537421233,0.6852924138137146,0.6412915698212032,905275000000
-0.13985879669000145,0.7365937779596041,0.640990238096554,905280000000
-0.012083940686640732,0.7263075253060067,0.6405503312362703,905285000000
-0.11579286492151027,0.7147607162897973,0.640442259456489,905290000000
0.1001665332511762,0.6874114785825556,0.6410303749895948,905295000000
-0.1369978660993252,0.7029014850698986,0.6416737569348246,905300000000
-0.2263740973043395,0.7205360098886082,0.6429109146851731,905305000000
0.1578836282717252,0.6741563624629489,0.6450496389631208,905310000000
-0.1722939825297349,0.743965399804378,0.6457169357623673,905315000000
-0.29258277889920675,0.7098332272209712,0.647609335695111,905320000000
-0.0022620236277539644,0.6630484771101095,0.6512771979653222,905325000000
0.02562790368502886,0.7372612138657526,0.6545112075994428,905330000000
-0.25026541095722926,0.729493916509937,0.6580683570620849,905335000000
-0.13705544566907646,0.6581215071392149,0.66305436301796,905340000000
0.10182991940040241,0.7272250918947859,0.6681517095563321,905345000000
-0.1892994870825809,0.7249029895549985,0.672025802207805,905350000000
-0.04321163046259638,0.6945300226388031,0.676976832085876,905355000000
0.08296609446430453,0.7978865189939016,0.6805397359715726,905360000000
-0.17604730728679774,0.7068230418729059,0.6832832409400044,905365000000
0.08575066090322571,0.7636972305945083,0.6860386414875898,905370000000
-0.09314285007800086,0.7772435748097202,0.6866031127235673,905375000000
-0.10410389757232111,0.7043807125178844,0.6867420789387496,905380000000
0.012431405661467183,0.717180176052562,0.6865559711308442,905385000000
-0.15541854367952185,0.8413848641668051,0.6854796792285828,905390000000
0.008160633346697298,0.7291599408328333,0.6843258074371712,905395000000
-0.0901199682411593,0.769388449060499,0.6835104787630353,905400000000
-0.07044785803831508,0.7482739863276389,0.6817585023217243,905405000000
0.033610815527683933,0.6869814893344012,0.6815466366572226,905410000000
-0.022927244404207105,0.7827459261323327,0.6798747447385382,905415000000
-0.13723403566817413,0.7334341965936851,0.6786769302763208,905420000000
0.031197633814010785,0.6744846421902623,0.6790648252130451,905425000000
-0.034361185975893646,0.746260229797574,0.6773749923974092,905430000000
-0.15133042975565625,0.7195268945551277,0.6765152302097261,905435000000
-0.029694012068852353,0.6871896923691568,0.677468503504529,905440000000
-9.064250992909563e-05,0.7784279298810859,0.677182425560465,905445000000
-0.19575611498892115,0.7620300395455548,0.6768773784382497,905450000000
0.05484462606573112,0.6614620669471782,0.6783704458075417,905455000000
-0.03429336813387707,0.8216768671691842,0.6784375052900462,905460000000
-0.069927700549108,0.714896029226799,0.6792987849423185,905465000000
-0.00539378913182505,0.7280490064800611,0.6803825347370787,905470000000
-0.14302744505758033,0.7759162091971968,0.6805558372452445,905475000000
-0.06785574516618667,0.6873424172449217,0.68129071898054,905480000000
-0.04059640218492094,0.8004263388499264,0.6823940031169653,905485000000
-0.1091604708337411,0.7636972819719049,0.6823418096545847,905490000000
-0.024756464020572494,0.6978228621868788,0.683606333634384,905495000000
-0.01476947050021245,0.7546717695252516,0.6843590378567906,905500000000
-0.1049688812550084,0.6733909674078459,0.685363338924306,905505000000
-0.09522165200905651,0.7563833303588993,0.6867143824190445,905510000000
-0.058900227222911064,0.7754177089081765,0.6871558139772037,905515000000
-0.015415487148028734,0.6926832871193506,0.6877689814553045,905520000000
-0.00563891808221178,0.7703129948007501,0.6886543324385973,905525000000
-0.13686568351335474,0.7512756646333258,0.688333617896815,905530000000
-0.03706079225626683,0.6884323165554924,0.6885544856294937,905535000000
-0.04356905183440308,0.8048751092868255,0.688364538465043,905540000000
-0.1349728545720273,0.735331542765515,0.687351673809689,905545000000
0.02026417419476483,0.7009678928328371,0.6885680795714032,905550000000
-0.12581620760986967,0.8199158557586577,0.6876134908675506,905555000000
-0.08936150809578422,0.7509780667953635,0.6870115027531642,905560000000
0.2229246530484003,0.7238340430355005,0.6869038523387014,905565000000
-0.2190219730666792,0.76150028612229,0.6848990129003384,905570000000
-0.09265487988378496,0.7442392284446966,0.6838291933461429,905575000000
0.08321305466100708,0.6774150029985035,0.6827471918350564,905580000000
-0.16435540320112563,0.7822107595769472,0.680318727294267,905585000000
-0.12418385292712204,0.7294633959502014,0.679378928203298,905590000000
0.05763227030656532,0.7502325508935769,0.678181334492456,905595000000
-0.04394758829385498,0.7276935099491211,0.6768469261336736,905600000000
-0.048741993652774866,0.7378457197393354,0.6755729233203228,905605000000
-0.07119895567772885,0.7394424041502098,0.6741583166246042,905610000000
0.05181986912791806,0.6735973687802765,0.6732750580282303,905615000000
-0.13615542814449053,0.8277444222660354,0.6717371417883488,905620000000
-0.03699198853580524,0.7357432152816278,0.6700867473937918,905625000000
-0.06180048898043075,0.718988338264906,0.6689467519216026,905630000000
0.06528930620968246,0.6032351493521143,0.6682490675095836,905635000000
-0.1454099874144571,0.8218970488379225,0.6674403571582521,905640000000
-0.0334801713801787,0.7336301402189831,0.6662316966388411,905645000000
-0.03401537616751717,0.695229988059298,0.6653309436082625,905650000000
0.03436024317144591,0.6166526329631219,0.6647132093466985,905655000000
-0.20210760232451389,0.7779079248851127,0.6648962948459466,905660000000
0.024453508685566522,0.6897983523321483,0.6645622015337586,905665000000
-0.03548184453742556,0.7255337082590615,0.664711118434151,905670000000
-0.026066480492031724,0.7298286033992634,0.6650334074006448,905675000000
-0.1529751190532628,0.657860633783454,0.6657798736116349,905680000000
0.012394492619807377,0.7446094559639191,0.6663017743223281,905685000000
-0.07567416349233733,0.7121686748119986,0.6674156886786955,905690000000
-0.05713869123060292,0.695574881997196,0.6681702362240005,905695000000
-0.06769907214182995,0.6887329701259997,0.6684280182249127,905700000000
0.011614039716702749,0.7034480842907794,0.6691060010259777,905705000000
-0.0874709619011819,0.7457749097774126,0.6697802196836138,905710000000
-0.013821928504748594,0.873620360156031,0.6698062389485251,905715000000
-0.014353307906690316,0.5572747122672687,0.6710774342956706,905720000000
-0.12446331861288076,0.7746051218845479,0.6716149013375794,905725000000
0.004260550891566902,0.8426820928221588,0.6717414200323369,905730000000
-0.11631382103567642,0.5936610287650577,0.6717396522036647,905735000000
-0.050086447458933224,0.7490062752420587,0.6724427237002296,905740000000
-0.007423775993339918,0.756505234447101,0.6728355089042879,905745000000
0.002879445385849209,0.81046493507473,0.6731352490121587,905750000000
-0.12075927109341665,0.6256413385032938,0.6731202372186862,905755000000
-0.05116893927377626,0.753751038573676,0.6735742620592006,905760000000
-0.020275828089417837,0.7473138177635834,0.6743356497555878,905765000000
-0.012191532021915585,0.8713963439382335,0.6745564170355575,905770000000
-0.07617588535754172,0.6073428385015618,0.6742397252717781,905775000000
-0.10399250337961945,0.7374686114252198,0.6750825218164087,905780000000
-0.0701260332896046,0.7818615078746494,0.6757281284835769,905785000000
0.05049992287825954,0.7515308336882545,0.6756254549167646,905790000000
-0.1371415189456962,0.7025128252127161,0.6759821234497739,905795000000
-0.08226088616299558,0.7462262416201276,0.6764702919230936,905800000000
0.012663961585946298,0.7941472339252602,0.6763487134667662,905805000000
-0.01818273640401443,0.6212953565646754,0.6763106408330887,905810000000
-0.11640320107345235,0.7527599593374871,0.6770708587053251,905815000000
-0.044289205474572615,0.7272293051525351,0.6773009471530451,905820000000
0.012236027348154209,0.8199829083414798,0.6771434296633628,905825000000
-0.13582671538490262,0.642450059581128,0.6778066804235792,905830000000
-0.019502329721338137,0.7604036173351159,0.6781065374350453,905835000000
0.010466558047560866,0.8061282988395484,0.6778446808055405,905840000000
-0.1545795887373454,0.6112021043687126,0.6782271299582079,905845000000
0.028654595169556495,0.7250006383193103,0.677782726785254,905850000000
-0.11861357361129893,0.7426580108766841,0.6783747446978625,905855000000
-0.018627017270721684,0.8156902328281992,0.6775609994038223,905860000000
-0.04371651229101452,0.6334171889007963,0.6779818052580014,905865000000
-0.09623969871362312,0.761434232596769,0.6782595755866258,905870000000
0.007289838430964046,0.8202230965868758,0.6780278032808041,905875000000
-0.08090779930533704,0.6610571330417345,0.678801114356802,905880000000
-0.11843505442411456,0.7390285313274052,0.6788669311662149,905885000000
-0.006528760733415583,0.8037675617369172,0.6787581245828828,905890000000
-0.1589302542185502,0.6263101608496893,0.6795756456935551,905895000000
0.037886554816481316,0.816721349089227,0.6803299428958256,905900000000
-0.10318405897759783,0.6608847933498557,0.6803406768623759,905905000000
-0.0666816313698406,0.7408199883692073,0.6816515502023823,905910000000
0.033172013367869534,0.8421300197966948,0.6817714937681845,905915000000
-0.1305455628648765,0.6337881502455147,0.6821901909465967,905920000000
-0.05622983217038282,0.7287683424611577,0.6820762500968336,905925000000
0.008468226401026992,0.8060599263337943,0.6826733967152061,905930000000
0.0779387450814219,0.6996958706756472,0.6822559564679802,905935000000
-0.23230468134136675,0.6442145915824475,0.68194183663183,905940000000
-0.02035940705784537,0.8472982049151571,0.6820489048440818,905945000000
0.043941241143565665,0.7426708567248925,0.6813935352520618,905950000000
-0.19161294386661556,0.6789264292055347,0.6812149342261488,905955000000
-0.0053454467381677685,0.8306210859530238,0.6816844525919789,905960000000
-0.05036294388590689,0.7510511999442125,0.6808924503670936,905965000000
-0.12344262565733384,0.6563778703417742,0.6814580577571504,905970000000
0.03432569414107574,0.8332619215182857,0.6819986304757443,905975000000
0.04364299309581195,0.7274623289750778,0.6821104467542096,905980000000
-0.16890441174571377,0.6779238608155715,0.6824829641563502,905985000000
0.024097863305474813,0.8224215497054768,0.6827333433032869,905990000000
-0.14747665598015344,0.6876802765669894,0.6833652491791781,905995000000
-0.029787952061677527,0.79503951667373,0.6840187864819522,906000000000
0.021601867659668608,0.8396276057473657,0.6841907724659703,906005000000
-0.18304403744591877,0.6680247842236393,0.6849086346743548,906010000000
-0.025119511919220308,0.7932975793091912,0.6858522779825523,906015000000
0.00730505587041488,0.817381424333546,0.685655129356442,906020000000
-0.13027448530889998,0.6618407143135046,0.6858539858721527,906025000000
-0.017074613792533413,0.7825709881042134,0.6865614599789385,906030000000
0.056580522201591404,0.8447023216025423,0.6858973028472705,906035000000
-0.18500291001500183,0.6881771231895346,0.6862766157875632,906040000000
-0.01628718994347129,0.762209996548832,0.68696592268299,906045000000
0.0459063300538811,0.8528566248523635,0.6869981312412228,906050000000
-0.024736276469660846,0.7389925538277646,0.686296046300813,906055000000
-0.1243214710566901,0.6927446537658533,0.6869177514586201,906060000000
0.03984218282054694,0.8286064772867532,0.687069115777998,906065000000
-0.0678376548532763,0.741896003149188,0.6869464077219612,906070000000
-0.11072191738822514,0.6955874612396,0.6878815367182161,906075000000
0.0741320186215783,0.8486523231680893,0.6880222787844125,906080000000
-0.1285638416809236,0.7152186251025281,0.6884118768616383,906085000000
0.024605777082768836,0.7618628655848828,0.6887513124266452,906090000000
0.011250950969015985,0.8416875225339037,0.6890269556792008,906095000000
-0.16487660861021314,0.6596100822931791,0.6889442345784854,906100000000
0.001258275455228875,0.7881914245306058,0.6894371769885271,906105000000
-0.007907812876726084,0.829566136978692,0.6890987128689912,906110000000
-0.09080417519572982,0.6757625911245676,0.6895556485961396,906115000000
-0.08953432463661591,0.7698619245946869,0.6894815056176962,906120000000
-0.019778457390530246,0.825349185039023,0.6894861109303712,906125000000
-0.14216006480006063,0.7257760122113013,0.6901318363149381,906130000000
-0.019985594874421485,0.7809480881808785,0.6905433909488303,906135000000
0.04507649106505169,0.807990455103426,0.6898708961247823,906140000000
-0.13638049299228855,0.6727762274438103,0.6902570380413305,906145000000
-0.03814908007111646,0.78623917567797,0.690686989334866,906150000000
0.024008959030425568,0.8427051369532939,0.6911825515134172,906155000000
-0.14030067225402007,0.68610531460864,0.6906573241040395,906160000000
-0.0034240312392856825,0.7899766618018598,0.6915211374564085,906165000000
0.0775922069622178,0.8541998193104373,0.6908675661813413,906170000000
-0.15901867572233674,0.6895358127119936,0.6915361116798153,906175000000
-0.035675852073329045,0.7942097130559665,0.6925111306562949,906180000000
0.044361531407911825,0.8155200264324597,0.6930583283758281,906185000000
-0.13433665667267952,0.6720666860713954,0.6931407534109923,906190000000
-0.06798176803941242,0.7610276454520212,0.6935501221335302,906195000000
0.043807698155534,0.8215094191181059,0.6946053738068962,906200000000
0.0809505754636552,0.7852118488987289,0.693914141360527,906205000000
-0.23482412364038185,0.7069131882270367,0.6937979212106936,906210000000
-0.039404604572672725,0.7791445798995951,0.6943563066520229,906215000000
0.04850898078294896,0.8056269829204038,0.6945254196467552,906220000000
-0.1415066141754111,0.6732949967249221,0.6940947517810734,906225000000
-0.06182159918277105,0.8104612322538906,0.6942739895701749,906230000000
-0.03254822275000054,0.8180918749418495,0.6944544889455014,906235000000
0.06989114743841121,0.7360497949677431,0.6941983882258499,906240000000
-0.2362358286492301,0.7516643675450325,0.6945955872316787,906245000000
-0.02560632485119086,0.8115448792578319,0.6956003522193841,906250000000
0.07167757914256784,0.8295471327881372,0.6957903669629434,906255000000
-0.09251726933100701,0.699039301949109,0.6961596066295863,906260000000
-0.07866703888772719,0.802387808178686,0.6966887408509651,906265000000
0.011845314902339425,0.8336328023677488,0.6970388949327593,906270000000
-0.15609994786546524,0.6970405619385792,0.6968366913422378,906275000000
-0.06411965453479007,0.7469341060816558,0.6976366277238145,906280000000
-0.019767215442259494,0.7873190279602218,0.6982734829692162,906285000000
0.04541719150995622,0.8465108647653696,0.6983623268605548,906290000000
-0.05870229668359976,0.7053931365291939,0.6988259953786345,906295000000
-0.10073593786677831,0.7905153734409703,0.6994820156929876,906300000000
0.01449713290627555,0.8209379202977671,0.6988429146046328,906305000000
-0.18782777876612713,0.7054994465288777,0.6991977544665788,906310000000
-0.014638579185605361,0.761708568760363,0.7000302357593908,906315000000
0.07198975777742649,0.8225933383622887,0.6993805373154005,906320000000
-0.13381091239950413,0.7243987971269876,0.6999752899347303,906325000000
-0.03991077882821177,0.8078794072303095,0.7000931817586211,906330000000
0.03979027927687441,0.8056400891554087,0.7005253995066627,906335000000
-0.15881941672497488,0.7316751814140577,0.7000581597150572,906340000000
-0.022540301960381124,0.7481455549641417,0.7010001831169289,906345000000
-0.0196121281838385,0.8158299552134248,0.7016621849152944,906350000000
0.07032024348981672,0.816259614176227,0.7016018921216807,906355000000
-0.07153938904474448,0.6561174772382142,0.7023037917608248,906360000000
-0.054892971846692784,0.8272270683448334,0.7026360518799029,906365000000
-0.05213768271389339,0.7988577473340285,0.7029593594164808,906370000000
0.054263504141543364,0.7147894974269149,0.702872234659398,906375000000
-0.040943539888302447,0.7910679422602264,0.7027162596434173,906380000000
-0.11956352184565949,0.8116748225210967,0.7033772578179172,906385000000
0.06439302700966953,0.8220829118555882,0.703159677409561,906390000000
-0.13401596228978124,0.6865106969945802,0.7029771829704334,906395000000
-0.06219076311745421,0.7724453529913967,0.7034390613702085,906400000000
0.049437992513111824,0.8153133039778852,0.7034653087728514,906405000000
-0.06731344560161646,0.6736160982531134,0.7029780879429427,906410000000
-0.10043705934664006,0.8618622601047489,0.7033424282081076,906415000000
-0.08287798496509072,0.7603345177949108,0.7029390123733067,906420000000
0.04566858485631094,0.8062282858951227,0.7031385122580921,906425000000
-0.09554843062324324,0.6765364707163465,0.7031070730095502,906430000000
-0.05375248003921529,0.8003214616053095,0.7036078236314024,906435000000
-0.04329894975477417,0.7913398612663488,0.7040214554401842,906440000000
0.02497377483894842,0.8323671673214125,0.7042520624071295,906445000000
-0.053980644759201266,0.7152033424332229,0.7042726976136223,906450000000
-0.07544743979456091,0.8159078774439896,0.7044434320000892,906455000000
-0.04793112804450935,0.7713973935787629,0.7055181928816484,906460000000
0.09824061525175812,0.8345492135008814,0.7056834105068718,906465000000
-0.031802196534844444,0.7104195756315919,0.7060855672031634,906470000000
-0.09656975178157831,0.8389840262153717,0.7061668606725512,906475000000
-0.0720018819355811,0.8051496857380763,0.7067411011759074,906480000000
-0.06804962661038474,0.7848088770425642,0.7073820001929892,906485000000
0.023345460320690965,0.8035552861178626,0.7072524127506925,906490000000
-0.058070793200018275,0.7668865598342827,0.7077150351500964,906495000000
0.03265419308502035,0.8097624375295238,0.707914785919903,906500000000
-0.13017880415934105,0.7388847401379871,0.7074088637745234,906505000000
-0.03402619819465157,0.7894180050474796,0.7085678023067451,906510000000
0.0017074890768853952,0.817923990039195,0.7088129310006331,906515000000
-0.052495705656716476,0.8416510568465596,0.7092099660063399,906520000000
0.10308323506576238,0.7610021077926851,0.7089010448006604,906525000000
-0.12722924999307658,0.824179595232018,0.7089257689893893,906530000000
-0.09508368341550022,0.7888600506764265,0.7090231937660072,906535000000
0.06402428828084589,0.8143372283450123,0.7084127938831054,906540000000
-0.0906898051615933,0.7574330996930266,0.7087168989159596,906545000000
-0.013644614791500146,0.7984286399635919,0.7089509610100031,906550000000
0.0571645168062596,0.8283808036979207,0.7098453413241929,906555000000
-0.0875315588883123,0.7221019978094706,0.710083656477904,906560000000
-0.07287450743622097,0.8290863626161052,0.7100090925711444,906565000000
-0.03692186864481584,0.79938152156546,0.7106588660487109,906570000000
0.058723044275638694,0.7411061600046479,0.7110780516882095,906575000000
-0.06244373769134794,0.8180561268158254,0.7107269669982739,906580000000
-0.06365203112085628,0.845051513486035,0.7111295506962817,906585000000
0.04387090672836283,0.8331883587364074,0.7115261400240156,906590000000
-0.0683943434747575,0.7429954175373263,0.7115207692314681,906595000000
-0.02325495466162257,0.8152339541416174,0.7116972021682928,906600000000
-0.11595482533037581,0.7931403792033733,0.71177403445798,906605000000
0.06815183732685234,0.8396203016395171,0.7117295127692346,906610000000
-0.013318995931436685,0.7520980293485576,0.7112728200075009,906615000000
-0.14625108760178895,0.8239314219741315,0.7109765291712152,906620000000
-0.08168534938063923,0.8104680578530192,0.7113313654308543,906625000000
0.03657314247621129,0.7659849064338236,0.7107343638518255,906630000000
0.002599325534934145,0.7795500669549449,0.7108553908508115,906635000000
-0.06449912940876569,0.8191889118115759,0.7107292655489891,906640000000
0.11434708946529107,0.7782740885433652,0.7107820576686331,906645000000
-0.12458945563701428,0.786189168220399,0.7113904461597073,906650000000
-0.0741697962941282,0.7959541879617439,0.7113582851525541,906655000000
0.06324511072215466,0.8364569024061363,0.7120609863842963,906660000000
-0.06094309352886286,0.6968049489272937,0.712135134848986,906665000000
-0.0745715841978792,0.8830908006311379,0.7129551261876942,906670000000
0.07726995171895196,0.8386681819843848,0.713205465495621,906675000000
-0.18315104611082988,0.7263980704941708,0.7137892785856611,906680000000
-0.03034113101323526,0.8373919114532802,0.7142673147005918,906685000000
0.06267737469477282,0.8125462580540435,0.714858049559656,906690000000
-0.20073738893358847,0.751176304646729,0.7154380493885212,906695000000
0.02322076791700628,0.809057656658902,0.7159800451737066,906700000000
0.028208213993603674,0.8474807634603632,0.7159667472194651,906705000000
-0.11095239354343708,0.7602091783207926,0.7163529998652489,906710000000
0.022916216395132596,0.7731307299481076,0.7172927271350225,906715000000
-0.06503582708778152,0.8515281967337346,0.7173152816009141,906720000000
0.07694860083619226,0.8167827718967695,0.7176858935927884,906725000000
-0.10192935106464607,0.7251895164085094,0.7186297275206288,906730000000
-0.049215779190936164,0.8401158676325696,0.7193693238383558,906735000000
0.04196649815501376,0.8118089636318733,0.7197789303472023,906740000000
-0.1540829278778299,0.8169636907063534,0.7194161601469177,906745000000
0.004560593204294429,0.7950901619946977,0.7199989688354457,906750000000
0.07458779460437563,0.8469138808869583,0.7208654340317672,906755000000
-0.16051222148272204,0.8427699842379299,0.7206700903079807,906760000000
0.0239728985723712,0.7611590656940335,0.7211534081223245,906765000000
0.06968037215135021,0.8559269104499042,0.7210250383509994,906770000000
-0.13925436010651018,0.8191862236596983,0.7208501269350603,906775000000
-0.045351087600669006,0.7714037141934539,0.7216197501797228,906780000000
0.08776650083898907,0.815334702848333,0.7220508391311252,906785000000
-0.1697849962835902,0.8287745819868695,0.721901792414373,906790000000
-0.056766352863474236,0.7496491484709272,0.7226684291229927,906795000000
0.07188785490049865,0.8527863490244849,0.7228124070184914,906800000000
-0.12343247400514923,0.8263030518338295,0.7229783247153481,906805000000
-0.043875799619891666,0.7563556406005619,0.7232430882713852,906810000000
0.1070217386996014,0.8158629725123372,0.7237564491649989,906815000000
-0.08325848032825042,0.7908618701389422,0.7236760004008007,906820000000
-0.07944955480702917,0.8433758916697978,0.723814335367231,906825000000
0.022515018873936768,0.7842497029486772,0.723779430426562,906830000000
-0.09040898747203052,0.7256216278078034,0.7240466253677146,906835000000
-0.06251306142863969,0.8627151963109934,0.7242325226874899,906840000000
0.07361819320145811,0.8004826135566461,0.724343847728033,906845000000
-0.11160434190733437,0.8606645879386018,0.7246523598904959,906850000000
-0.03131581878060346,0.7506206264651212,0.7246543020689107,906855000000
0.05101814024953165,0.8051023856599501,0.7252282236333171,906860000000
-0.08294227572246586,0.8008743590685811,0.7251375157012638,906865000000
-0.09232572822669526,0.8204781091546017,0.7252447001512724,906870000000
0.05465023859821399,0.8037490661856254,0.7252721029738117,906875000000
-0.09903755962794844,0.87131104906049,0.7255447876445655,906880000000
-0.03586466794726753,0.7485774028455544,0.726194723089819,906885000000
0.05357336791606585,0.8196408207674378,0.7263883646214124,906890000000
-0.10300278616911074,0.8598878704737744,0.7262990519209138,906895000000
-0.038880810802275345,0.8233911204829654,0.7261370646909242,906900000000
0.033167656019664996,0.8312767125651229,0.7266954156048726,906905000000
-0.10987446655510244,0.8483399620276166,0.7268809300473076,906910000000
-0.016922538896980668,0.7746251644762431,0.7272235704130442,906915000000
0.08789810341742392,0.8249941443970729,0.7271965525015148,906920000000
-0.0723675256056449,0.8407791885195883,0.727720991043185,906925000000
-0.049844235650349275,0.7701479327223748,0.7279706663838184,906930000000
0.058015320104735785,0.8179295136109888,0.7284668708965524,906935000000
-0.08385955454065352,0.8646288693929804,0.7288319487737165,906940000000
-0.03553237554462693,0.7833869596655909,0.7289699556551256,906945000000
0.04065413203754732,0.8422114943874299,0.729264066045868,906950000000
-0.14494121079307437,0.8809509743239626,0.7297016072015263,906955000000
-0.030717560945978918,0.7769944015034372,0.7296047472623476,906960000000
0.06643552651551637,0.8232436295606993,0.730335363763546,906965000000
-0.10359891856947451,0.9193967453845501,0.7302448679710979,906970000000
-0.03704938489525252,0.7528609998973576,0.7302669338246047,906975000000
0.015989007185619866,0.8430663980253853,0.7305231137065545,906980000000
-0.17194834044306573,0.7985921247129789,0.7304823767072947,906985000000
0.04207575453194462,0.8349829044568584,0.7308238349264446,906990000000
-0.05067996595417337,0.8221476308760856,0.730888677618879,906995000000
0.08166162652845523,0.8468981822334254,0.7310169152211461,907000000000
-0.07639449955297498,0.7855592334339525,0.7310526857789528,907005000000
-0.11964733376112496,0.8070857742664712,0.7311514851986967,907010000000
0.06768943098537493,0.8206181592578352,0.731056910460033,907015000000
-0.10034635114456138,0.9184875110157091,0.7314325533545764,907020000000
-0.027812588463901396,0.7532689882587567,0.7317974458326566,907025000000
-0.06444484759960808,0.8206711260729355,0.7321437233877615,907030000000
0.1131384252672583,0.8600831305031647,0.732221087032196,907035000000
-0.10390137500702358,0.7723044132374514,0.7329101075151075,907040000000
-0.05834035502888593,0.7821950896096208,0.7329319098462311,907045000000
0.061923802330566255,0.8333385120726177,0.7335417485328659,907050000000
-0.13711985686566613,0.8439835092802632,0.733422398663412,907055000000
-0.015360336590750513,0.7523027234479818,0.7337359577501662,907060000000
0.0722679415756224,0.8219014747209793,0.7341435100661696,907065000000
-0.0832805496266143,0.8633276183817556,0.7339745008812872,907070000000
-0.03584924204258078,0.8141393419987694,0.7340599994342641,907075000000
-0.04805511261321136,0.8336358805188254,0.7341124348066628,907080000000
0.06296877268556622,0.8352625951025396,0.7342937767833481,907085000000
0.009053894591638141,0.8149551625375726,0.7341251597278514,907090000000
-0.0859904531814297,0.8134849543705964,0.7344442413613445,907095000000
0.08857339078668493,0.8486715868041664,0.7341466799043554,907100000000
0.004370567337045796,0.8564934022577302,0.7341450731635651,907105000000
-0.13505562856831121,0.8193826580183602,0.7341271815491063,907110000000
-0.08345209289124998,0.8250954714526956,0.7340102935893295,907115000000
0.059106375142103505,0.8245471662113056,0.734216724557487,907120000000
-0.026076929140660784,0.8177442380838104,0.7341167728356567,907125000000
-0.07798629550883787,0.8217417548490524,0.7346572104404291,907130000000
0.07001053438603756,0.8332709373541477,0.7352208384358379,907135000000
-0.03225548994800076,0.9193860031682941,0.7354660456050514,907140000000
-0.08825769123266843,0.7618151948752847,0.7356239063576134,907145000000
-0.05560224045598666,0.8374868903881693,0.735999651152492,907150000000
0.07420422309746061,0.821824187262934,0.7364082829695467,907155000000
-0.02311457652059541,0.9054138010500815,0.7367588352788783,907160000000
-0.11257080726635525,0.7990308085605404,0.7372711784651156,907165000000
-0.0441891172707532,0.8463148736512337,0.7374668917283059,907170000000
0.08660806802765608,0.827535589618435,0.7378876456353933,907175000000
-0.0686140135158015,0.9580444744446306,0.7382782747821863,907180000000
-0.06336437493004159,0.7346952576939654,0.7384388409501711,907185000000
-0.05183505214986706,0.828090555958571,0.738451157554837,907190000000
0.07187017010405969,0.8404746969133673,0.7392730223129174,907195000000
-0.009460182143456026,0.9274620834750906,0.7404798105095102,907200000000
-0.08245014184393865,0.7189731037474696,0.740721411023672,907205000000
-0.0463293098051447,0.8371388205330508,0.7409819246324957,907210000000
-0.01099024788959673,0.8410085680512069,0.7420012451921947,907215000000
0.02792701124506593,0.8721223227685178,0.7419979431319406,907220000000
-0.024444081269284115,0.8357163700533232,0.7426311576286023,907225000000
-0.07820310704475548,0.8261567271762391,0.7433758293690851,907230000000
-0.048471598884820055,0.8313309068068694,0.7430748464515038,907235000000
0.12822216183406637,0.8244893766407171,0.7437451140923245,907240000000
-0.050926080502883636,0.8578062169258991,0.7441696934714039,907245000000
-0.06499917095608988,0.861522652512007,0.7441311781039621,907250000000
-0.04405449460837571,0.849166758729272,0.7445608561647936,907255000000
-0.04746915883937973,0.8147832947828176,0.7444395037637564,907260000000
0.02585486033042052,0.8236309353679726,0.7449658410330875,907265000000
-0.028264766508170135,0.9006335360556426,0.74503047281656,907270000000
0.11773487484320252,0.8659414948803532,0.7451574458918899,907275000000
-0.08792718197771772,0.8886530004412206,0.7456198719099004,907280000000
-0.028775647194114264,0.7602829600099613,0.7456399518202088,907285000000
-0.025488587806692536,0.8747778387050572,0.7456304631520898,907290000000
0.08896964697664667,0.8002172115275272,0.7458594987005267,907295000000
-0.011651766692670987,0.8477069555421478,0.7461259844876071,907300000000
-0.0656524209045704,0.7832255206864407,0.7465847818989498,907305000000
-0.06342590119562502,0.8769955242597246,0.7467195803960702,907310000000
-0.008319410334784227,0.8141955215919078,0.7469461134450756,907315000000
0.054423681940208135,0.8347286839819658,0.7469602050112628,907320000000
-0.07861967909023491,0.896353662019558,0.7477757501784363,907325000000
0.044195249885112656,0.8406239850333832,0.7472622783513332,907330000000
-0.07403112529373146,0.9496187954140594,0.748128469614557,907335000000
-0.020075975917573933,0.7858223141728421,0.7476527574329278,907340000000
-0.02712574326480218,0.8614300912878159,0.7487607730449326,907345000000
0.058975817064212996,0.8521022766621417,0.7489831012786826,907350000000
-0.05167034984134279,0.8764565633143664,0.7493558905849045,907355000000
-0.05280251629707409,0.8489793286345402,0.7491342318800899,907360000000
0.0843027818949191,0.8227486074134416,0.7493515938212509,907365000000
-0.06149071326846743,0.9082192362535868,0.7495664228654195,907370000000
-0.04273387087957877,0.7770200880000655,0.7495991791199652,907375000000
-0.039189717221947556,0.8337561288638614,0.7498813420152403,907380000000
0.10592609325159483,0.8037027147453782,0.7502278046219594,907385000000
0.02933713550174074,0.904369844723367,0.7500272857880333,907390000000
-0.05639668070441283,0.8381410384207237,0.7501858077515671,907395000000
-0.013629326045035604,0.8380490076342285,0.7507542627637486,907402000000
-0.07445499954597916,0.9224923224034645,0.7511139121863709,907407000000
-0.04402192007305479,0.8441865489689576,0.7511765103688163,907412000000
0.052783407930885144,0.8524474889359096,0.7513914549439867,907417000000
-0.016238225605261378,0.9303422031852436,0.7521370534111739,907422000000
-0.054319340352144,0.7799826324053407,0.7519519575056476,907427000000
0.022321442014491814,0.8725930006920366,0.7521808212166604,907432000000
-0.037469057776336925,0.9304849259474937,0.7529710672145545,907437000000
-0.022957062328950006,0.804770478603619,0.7524860692251769,907442000000
-0.035836206946386666,0.841695303448821,0.7532147606238284,907447000000
0.09894643847701552,0.7789789806441912,0.753437920152135,907452000000
-0.02485057291152392,0.9440836104612567,0.7535495665206184,907457000000
-0.08327532568267502,0.7488756412741675,0.7533953598113103,907462000000
-0.02775216052718269,0.8607133276617784,0.7543107416272818,907467000000
0.06118513776748009,0.9093732596879391,0.7553648081061882,907472000000
0.014673829697913622,0.8300451846198574,0.756221616448338,907477000000
-0.057304505643582436,0.8435021770995091,0.7565603622176269,907482000000
0.09686506097289271,0.8420427830708472,0.7575352058747622,907487000000
-0.011267094137351604,0.9793568863389499,0.757500519352079,907492000000
-0.06109967428424312,0.7985303737602925,0.7574980543206364,907497000000
0.08760978753249782,0.8117720880873635,0.758036822434179,907502000000
-0.028427118018484004,1.008630376387688,0.7576212360328293,907507000000
-0.09320011819620504,0.7789856817526677,0.7579172784591148,907512000000
0.024392847517078382,0.7924209170545699,0.7583570324142974,907517000000
-0.08854119892054516,0.9283063120965419,0.7583828146898263,907522000000
-0.04862736411262722,0.8262707910780939,0.7588182107513425,907527000000
0.10311304446135264,0.8059309082266597,0.759184739163881,907532000000
0.06863734291712496,1.0117092467507973,0.7597426310519855,907537000000
-0.10151470871111944,0.7792364585026578,0.7602942359167529,907542000000
0.05036826533848804,0.8357255085655249,0.7606681642445678,907547000000
-0.014423772695832683,0.9659234438980812,0.7614204406725233,907552000000
-0.041069665952331955,0.8746417856144164,0.7617432215019205,907557000000
-0.04793518564835238,0.8519754510696712,0.7621318047462412,907562000000
0.08520173839580009,0.8161472997909056,0.7630668409754138,907567000000
0.07329431934700323,1.00416840071356,0.7631109087373183,907572000000
-0.13584828109170677,0.7947995073251461,0.7628113140934586,907577000000
0.032162533077836564,0.8163787566049975,0.763504093312437,907582000000
0.06461032311240372,0.9307231605811063,0.7637446085442189,907587000000
-0.10287988295433195,0.858954799261531,0.7633537753024009,907592000000
-0.0936814686083797,0.8399791032894641,0.7632408666213336,907597000000
0.07815551189868396,0.7469402166769493,0.7636317488613695,907602000000
-0.026289528113474417,1.014710888502566,0.7635924560674845,907607000000
-0.09523147258576514,0.8351719559964232,0.7631643885395725,907612000000
0.07076470267890544,0.8083183589839154,0.763380665464549,907617000000
-0.03228588045901534,0.9353727794715747,0.7637793544972382,907622000000
-0.02246228784224099,0.8471080279925574,0.7636935387317993,907627000000
-0.0013872373132628735,0.8435850587798069,0.7635169922479872,907632000000
0.05822437393702491,0.9418144988053575,0.76401596759789,907637000000
-0.11375334025194975,0.8611491162871776,0.7643099103417917,907642000000
-0.07015430598246089,0.8183869179548224,0.7646835520627948,907647000000
0.12028688334500262,0.7921587269941955,0.7655584084298966,907652000000
-0.05547518026526699,0.9608089499825281,0.7655972452317729,907657000000
-0.12446698735562214,0.816074719468402,0.7656245479503511,907662000000
0.09165118196016121,0.7920944836536191,0.7664043406459992,907667000000
-0.013496241994050953,0.9871608150616664,0.7667855292602429,907672000000
-0.06532147793328974,0.8577165470503418,0.7669118705096285,907677000000
0.054641436983463715,0.8257910898015659,0.7677901063843721,907682000000
0.028790389034865613,0.9676853297801661,0.7681681704778824,907687000000
-0.10348323188013991,0.8066074937923597,0.7684815034235899,907692000000
0.05917526724483526,0.8246449272700581,0.7685650695187822,907697000000
-0.0630837117291951,0.9242782790746119,0.7690178060428539,907702000000
-0.05751039523856812,0.8876538782647821,0.7685655289818253,907707000000
0.06534570818781416,0.8256163478700691,0.7689439920557526,907712000000
-0.014267091875428975,0.8824730838335301,0.7690939794291719,907717000000
-0.14902885927031456,0.8739046483956695,0.7691644110322394,907722000000
-0.03300579310724901,0.8863832771280303,0.7692469671654121,907727000000
0.09583201170124259,0.75699287306916,0.7697526461939656,907732000000
-0.053102705260072686,0.9907151796175855,0.769866680745321,907737000000
-0.07529700614827639,0.8478531065864958,0.7699728990350281,907742000000
0.050604249835337706,0.7759903852162408,0.7707835665656658,907747000000
0.027492707085109088,0.9920556946802076,0.7713216574153673,907752000000
-0.09828597678741989,0.8353530962388575,0.7710677629497893,907757000000
0.05415062001047849,0.847388207235814,0.7719620149084828,907762000000
0.015278617452266946,0.942981335929748,0.7718683668487477,907767000000
-0.1344050419564585,0.8522054183379032,0.7722273749613031,907772000000
0.0690854717119862,0.815676809705285,0.7730252904934722,907777000000
-0.046422078546780446,0.976322576230862,0.773322191134434,907782000000
-0.019372704417235202,0.8743501260920362,0.7730280975768664,907787000000
-0.052398027954525424,0.8853110791527288,0.7736400963512332,907792000000
0.057821691912038314,0.8424957700339408,0.7742627102425979,907797000000
0.0019791606534152045,0.968457394938165,0.7740097089569428,907802000000
-0.06276649817165242,0.882019624579672,0.7739204007625328,907807000000
0.08495463201232417,0.8235428772644989,0.7747124425998214,907812000000
0.04920115990891784,0.9944552411874448,0.7745905485815306,907817000000
-0.09960556131921315,0.8171485118303209,0.7742680357711663,907822000000
0.042124956122250486,0.800113323365168,0.7747731073688555,907827000000
0.021829552917744764,0.9449634264868408,0.774884176819622,907832000000
-0.033173553397497314,0.8990972992142537,0.774532851344346,907837000000
-0.03999848429944464,0.8639730162136825,0.7750073955225418,907842000000
0.06981727462231929,0.8214553787250775,0.7758786826310963,907847000000
-0.005984713773579179,1.0074655431466213,0.7760852033683652,907852000000
-0.04388322481173079,0.8807569715992105,0.7764803219677024,907857000000
0.04714372689738151,0.880858143865592,0.7767277133396326,907862000000
-0.016672170264222845,0.8933998773700815,0.7768576063610044,907867000000
-0.04322293651035137,0.8555255463347736,0.7773553513965602,907872000000
0.05974623730131624,0.9072855146634325,0.7780685461729139,907877000000
-0.03954065693996672,0.8999198708373448,0.7778970072492241,907882000000
-0.029586276325631336,0.9020761949752991,0.7777526680398386,907887000000
0.06250338882761224,0.9012006237412569,0.7784000305516073,907892000000
0.01731658544108783,0.9052097620813726,0.7785176917147164,907897000000
-0.08715212399228355,0.8860404370249239,0.7783529723939052,907902000000
0.08428322150771578,0.7589761853551398,0.779482105041337,907907000000
-0.04280320179404063,1.0625067103456542,0.7794518582902706,907912000000
-0.024637761649692214,0.826407099960708,0.7800078195523377,907917000000
0.07572318592199288,0.7838051583739227,0.7812787369582798,907922000000
0.011332011289048328,0.9720343274857413,0.7819514071103675,907927000000
-0.10226283698422299,0.8121056579817977,0.7828503112581376,907932000000
0.05837026736280739,0.872901135925448,0.7836987578686022,907937000000
0.06665406588531848,0.8867689321249994,0.7845295990625527,907942000000
-0.1322086258292987,0.8175159243013564,0.7858309342872182,907947000000
-0.06526951371705579,0.889103455517037,0.7863494510297824,907952000000
0.032293137838663034,1.0007440428447756,0.7876151650585986,907957000000
0.0038535889824013684,0.7364868675471513,0.7883873873022883,907962000000
-0.06631390190092462,0.9068666329048928,0.7894374152308363,907967000000
0.027639817875383176,1.0476720487754452,0.7901043093686193,907972000000
0.011282095844527232,0.7555613136127248,0.7906474331372202,907977000000
-0.11648132765134697,0.9314150920440024,0.7918648918804903,907982000000
0.02109200472473951,1.035317037244946,0.7927443337863957,907987000000
0.03191631137569326,0.7962892508847184,0.7934544864011874,907992000000
-0.08275062981056937,0.9097972425349238,0.7941934635752329,907997000000
0.03727522791101402,0.9946204095622915,0.7945236057991625,908002000000
0.04900037916484426,0.7933139921720416,0.7956575341704898,908007000000
-0.08497770209402876,0.8854919167678464,0.7963740653756286,908012000000
-0.05313080126275753,0.9070009166749062,0.7978855990117663,908017000000
-0.023590490841831485,0.9135458182787509,0.7986387811493986,908022000000
0.07370256826668611,0.9231163433188365,0.7987504046586545,908027000000
-0.05630745992125219,0.9385076971404657,0.799948790302316,908032000000
0.08594284483397065,1.0132183317090329,0.800419803612058,908037000000
-0.046663387123116296,0.8275624492389158,0.8009966984562905,908042000000
-0.05257146050800575,0.9411161570460191,0.8017878644115864,908047000000
0.01603965960338114,0.9623417597000359,0.8028791726060003,908052000000
0.054320869885248965,0.854147627517026,0.8031823350919245,908057000000
-0.0695651010383079,0.9101381374662311,0.803299585082527,908062000000
-0.047614689671439656,0.9451728875521516,0.8041727920758531,908067000000
0.027831850858998468,0.992424763474922,0.8041428157762176,908072000000
0.028592254916232733,0.8087020654051381,0.804484047174255,908077000000
-0.0819451082324832,0.9689007522779196,0.8048797178948267,908082000000
-0.2937100629613151,0.9874640673699283,0.8055404997055288,908087000000
0.3584091543734134,0.8334913893494323,0.8066556295605929,908092000000
-0.05578433992058705,0.9153360854110691,0.8075137502201779,908097000000
-0.33586452205684514,0.8893141484144567,0.8086237085379199,908102000000
-0.07569632835977688,0.8660802214753331,0.8108401992713133,908107000000
0.44713461148657174,1.0005267909936428,0.8133313078177928,908112000000
-0.030731165979657107,0.9338812675136899,0.8148737559946299,908117000000
-0.43688918640495544,0.8772552402118302,0.8172338293527514,908122000000
0.3244321944104984,0.9712639616900125,0.8197873423302755,908127000000
0.13332322003484748,0.9261684828157417,0.8207596060340226,908132000000
-0.4640632375495087,0.8813181760781438,0.8217541308333307,908137000000
-0.04049489429538467,0.9157677870903884,0.8249898305658996,908142000000
0.40787089563103945,0.981085493996577,0.8257932471126529,908147000000
-0.377207831664381,0.9173480489693221,0.8265519840710704,908152000000
-0.10761499287220297,0.888075282292414,0.8289487731484079,908157000000
0.5634666028113403,0.9948594698224577,0.8289452197502207,908162000000
-0.3330409932621506,0.9260096997088622,0.8290624549550578,908167000000
-0.13978990382803183,0.9135505413394841,0.8313342498316643,908172000000
0.45108074266238535,0.9840239425145133,0.8312212538820776,908177000000
-0.007570615371506007,0.9651577648150558,0.8307119688950974,908182000000
-0.10652405326360381,0.8977612164742534,0.831680461877949,908187000000
0.08575557215490127,0.9656691226214714,0.8309457150922049,908192000000
0.0023003708277748655,0.9841724478128833,0.8300904079516387,908197000000
-0.2867944815971174,0.9941347507053906,0.8292590716015464,908202000000
0.2408790101879043,0.8502177621542354,0.8282214023248109,908207000000
0.0011859393643696805,0.9499978224463779,0.8277460359351082,908212000000
0.1042842441198617,0.97170374497281,0.827628142648343,908217000000
0.11139832209593441,0.9338317237356545,0.8262991470322956,908222000000
-0.18213942640469655,0.8679256179305918,0.8253905589853852,908227000000
0.03953746529142102,0.9830357647172857,0.825218140603416,908232000000
-0.025876718017920512,0.9355756394290822,0.8244759824210641,908237000000
-0.0036962493614611062,0.8438856860739539,0.8238532850250908,908242000000
-0.028369922278376758,0.9437991734072106,0.8237452903283778,908247000000
0.08110620357324606,0.971451014327259,0.8234260003284268,908252000000
-0.018603985156007776,0.854183991274791,0.8227652002905117,908257000000
-0.039620941635222284,1.0024635432972944,0.82228475571092,908262000000
0.050009419553773186,0.9818363133659388,0.8219032320480569,908267000000
-0.026257678355476384,0.8206205804880736,0.8210965309413928,908272000000
-0.05878713697622453,0.9748260924990862,0.8210378952399303,908277000000
0.09459061549620473,0.9784985345279467,0.8210118015122922,908282000000
0.049254670250427936,0.8374326474911103,0.8209821636429464,908287000000
-0.09726203337112477,0.9775617040087243,0.820883783297009,908292000000
0.048958829883873727,0.9835141743505363,0.820963206119613,908297000000
0.004072748425684031,0.7837657522992435,0.8205797296632618,908302000000
-0.05791003492153478,1.0467961821403478,0.8207251546035131,908307000000
-0.02371748610655186,0.9198306457891174,0.8206095534407343,908312000000
0.029634446596042613,0.843919787427251,0.8202218740553521,908317000000
-0.05485687310136888,1.0391641211466154,0.8206485530718145,908322000000
-0.019678631972373045,0.9291291397850812,0.8204746683762264,908327000000
-0.05748568956786461,0.8713820063518015,0.8210221031134245,908332000000
0.003645058255054602,1.0113000469011226,0.821550964047347,908337000000
0.07150908231752365,0.9893863470617061,0.8217045949135725,908342000000
0.04532443185757865,0.8202202293936659,0.8219358659157054,908347000000
-0.15279891403093016,0.9824527214222613,0.8222982894257596,908352000000
0.06514802567184624,0.9873243645863854,0.8223243248371896,908357000000
0.10667136730593402,0.8102672078936669,0.822417488999629,908362000000
-0.18106859849773935,1.0029950894590194,0.8220680947002488,908367000000
0.036559062973746434,1.0129188001508396,0.8226045365411193,908372000000
0.06841303475093748,0.8834877349564364,0.822145348694151,908377000000
-0.13627280600829836,0.9433637355530028,0.8219527721919404,908382000000
0.08172839569832496,1.0064868502414515,0.8226340392933879,908387000000
-0.022754838495038687,0.8570527395983593,0.8231315616627743,908392000000
-0.015249621839094197,0.9370706943102177,0.8229130517844494,908397000000
0.0486033246415216,1.0360918943952306,0.8239162982549643,908402000000
0.07863291851609555,0.8082709755593466,0.8235296659944458,908407000000
-0.09794359070626969,0.997476038158325,0.8235291515669482,908412000000
-0.015583687206655074,1.0509680798354841,0.824030903189487,908417000000
0.06949288324177774,0.8875121611656266,0.824135041451906,908422000000
-0.06845889526359303,0.8804708593243922,0.8241266537763283,908427000000
0.04634020763589669,1.0489609651450214,0.8242734383456088,908432000000
-0.06919595333437917,0.8527571688310459,0.8247464718802752,908437000000
-0.022433404510675495,0.9631779558345179,0.825033255877605,908442000000
-0.2998462571281511,1.0000152851667843,0.8265469723829995,908447000000
0.4073511144773691,0.7846706608864119,0.827584642856414,908452000000
-0.038676771560160514,1.025929360235318,0.8290133061430197,908457000000
-0.29886170651199107,1.0066048046155804,0.8309502658278541,908462000000
0.1144622022933669,0.8579248661391017,0.8333708426429602,908467000000
0.17984676998893448,0.9599427835029332,0.8352740757174889,908472000000
-0.33413530227234284,0.9807919066179656,0.8365495906782845,908477000000
-0.08804827510834282,0.9287623397476229,0.8393101797614776,908482000000
0.14500305368418373,0.9680228307770746,0.8431962864592076,908487000000
0.2751942026604774,0.978117274770072,0.8444505926841512,908492000000
-0.457334239851956,0.9585838456078122,0.8471080793827406,908497000000
0.2495042309605553,0.9596592637946839,0.8487972575986746,908502000000
0.2022427513547042,0.9965832703179907,0.8493179401305917,908507000000
-0.5168300108297108,0.9278874017812055,0.8513738378716011,908512000000
0.29029917461220317,0.9384774246575321,0.8537571873323495,908517000000
0.12164808895644838,1.012567372754837,0.8544843540408924,908522000000
-0.4860920154800116,0.9351418595280657,0.855446445962755,908527000000
0.3524158906681908,0.9677384304887563,0.8573583747427231,908532000000
0.11148075814834311,0.9857505248914011,0.8575647252213214,908537000000
-0.4956945740734173,0.9426609455781981,0.8582729230925967,908542000000
0.4661844018471549,0.9872543588485325,0.8598224898186614,908547000000
0.013779640837088143,0.989008793507751,0.859317280195505,908552000000
-0.35127950649140993,1.0111759247157648,0.859036274445683,908557000000
0.3285481634185064,0.9024980468560103,0.8588588695657431,908562000000
0.024065619090723817,0.9831491665553632,0.8576327663655878,908567000000
0.08746435720546751,0.9784408357260573,0.8564332548089124,908572000000
-0.023064085312485605,0.9465665356773,0.855280057935741,908577000000
-0.19001391702017556,0.970173796522377,0.8541046536176953,908582000000
0.07400611972012433,0.9639445628080174,0.8527696944947436,908587000000
0.1361567238537556,0.9955414305111829,0.8523310946956768,908592000000
-0.04038120246546092,0.8762243995968507,0.8514260315662833,908597000000
-0.005960127116624005,1.04644096229625,0.8512117906922968,908602000000
0.08500140749129606,0.9728998354782308,0.8502869292159827,908607000000
-0.045198942865651626,0.8591589385363876,0.8497348090341208,908612000000
-0.033490677209153843,1.0184503864746948,0.8490024407818376,908617000000
0.09021958542163942,0.998425176980235,0.8485986809474202,908622000000
-0.07834121547178971,0.8944813200726986,0.8476155779316916,908627000000
-0.025575670778380542,1.0074905881823895,0.8479523984882309,908632000000
0.056742654648485824,1.0190574794648066,0.8475439280859638,908637000000
-0.08701016490870277,0.8667507930332562,0.8474441728161481,908642000000
-0.03523374228984909,1.0349092682330494,0.8474335939974752,908647000000
0.09025701007871677,0.9685328705242711,0.8471698993374225,908652000000
-0.01995781459358262,0.8454788895484086,0.8467817187204651,908657000000
-0.07534821613786571,1.0564171102421516,0.8460428054183425,908662000000
0.07896581428747748,0.9804442983929895,0.8462345757721655,908667000000
0.04836583783211309,0.8190666029920263,0.8461201603249435,908672000000
-0.07549345088079695,1.04599336611196,0.8456337939546912,908677000000
0.054592599321780656,0.9874829389846731,0.8455458944103059,908682000000
-0.07242673445201186,0.8628860593238996,0.845747435575338,908687000000
0.016754370391342806,0.964908935925054,0.8460056856012347,908692000000
0.08081665578195525,0.9874329787194798,0.8467628242588968,908697000000
-0.03278713490227285,0.880161179217191,0.8469340495134721,908702000000
0.012834917120922332,1.0049172168839946,0.8473005956148538,908707000000
-0.03244049398541069,0.9910897197917407,0.847732804272602,908712000000
0.04962622706330088,0.9081376547125712,0.8480522307502347,908717000000
-0.05821371273626083,0.9714203554601554,0.848235631402265,908722000000
0.05803537307655787,1.0094817695455913,0.8485947527748643,908727000000
-0.09472766318623224,0.883046976957819,0.8489551244492917,908732000000
-0.060962300403251284,1.0024372781148259,0.8497177835919197,908737000000
0.10126395048635192,1.0105444968739918,0.849577268596642,908742000000
-0.004405260601141762,0.8357569695617587,0.8498177967276697,908747000000
-0.08595314979960487,1.0720683072873143,0.8503728412504901,908752000000
0.07487284282114963,0.9997839102881737,0.8506146926324376,908757000000
0.10758847577951518,0.8370148659427243,0.8509384769397959,908762000000
-0.12277212235451723,0.9896695761795974,0.8516626142814941,908767000000
-0.06898226621340048,0.9961176099336797,0.8517107348770976,908772000000
0.16465717103197428,0.9653765189935184,0.8522390073497256,908777000000
-0.050609752483949194,0.8743034279982335,0.8518842186822136,908782000000
-0.11465228898582908,1.0365695776838584,0.8522620501047673,908787000000
0.08238919944046531,1.0160225148005935,0.8528916512341012,908792000000
-0.08203616325023223,0.8096068940330615,0.8532024253962968,908797000000
-0.061284405742356815,1.0279929274758817,0.8533796743946132,908802000000
0.10184440664143399,0.9764416097665367,0.8540692133616066,908807000000
0.006171650527700378,0.8757234734837336,0.8538871857235035,908812000000
-0.0855424242129447,1.0310380746434475,0.8546085220088575,908817000000
0.08888338386135194,0.9730677327366707,0.854907977170827,908822000000
-0.0945445789724577,0.915950642041241,0.8553044980553268,908827000000
-0.06324878544649139,1.0308252214265152,0.8554659806275657,908832000000
0.0917322253374993,0.9640588737394536,0.8558660942481996,908837000000
-0.06024349899086972,0.8592370452015118,0.8554030958217543,908842000000
-0.05787387270828073,0.9716270654994307,0.8564163166275383,908847000000
-0.05831332773470943,1.0414752684921167,0.856364104042264,908852000000
0.04824336440459574,0.9669766985587428,0.8570500165260702,908857000000
-0.0555989408723914,0.9511511361165816,0.8578384542106309,908862000000
0.033855031117671214,0.9843050748583637,0.8587634415070301,908867000000
-0.055597790214409325,0.8720441615270017,0.8592543203026632,908872000000
-0.021621291312463705,1.0377962492352144,0.8597029852559623,908877000000
0.05971819612561739,0.9393066230487125,0.8606382443529926,908882000000
0.05509411925421106,0.8962869035769456,0.860994526666987,908887000000
-0.06132451747694352,1.055183637658095,0.8612523293772301,908892000000
-0.06260543523923415,0.9950554890518576,0.861762171804792,908897000000
0.1066134758479973,1.0222193056302087,0.8623914377184547,908902000000
-0.07368538840765693,0.8856748681177556,0.8626176477552199,908907000000
0.062031862034068755,1.0205815250932533,0.8634608354698408,908912000000
0.031669879941701624,0.9057201324939795,0.8636200517154933,908917000000
-0.13603693117163698,1.0298567874296223,0.8637918242781985,908922000000
-0.0008325121760663669,0.9765275609598607,0.8644059545652504,908927000000
0.14378586888861425,1.0363091002580103,0.8648373975380111,908932000000
-0.12987491031396814,0.8757999309447732,0.8647962168812934,908937000000
-0.016037043397369458,0.9977178585995781,0.8644308957858079,908942000000
0.11284200963392843,0.9442704780265205,0.8645135107906642,908947000000
-0.052137925153508,0.8687197900218505,0.8640438769411338,908952000000
-0.09605956729731785,1.0088768137625341,0.8642106674707407,908957000000
0.07495227667674083,0.972476273277645,0.8649800729370443,908962000000
0.002832881525957382,0.844404833640429,0.8643450765869424,908967000000
-0.06870206741240122,1.0556254488965389,0.8656062289965902,908972000000
0.09518823289815527,1.0115174987087692,0.8663140617621863,908977000000
-0.062066338186190353,0.8707690248329215,0.8662377706517209,908982000000
-0.06516122722598228,1.0561412649172008,0.8667948820411387,908987000000
-0.40315425683729117,0.9633593194729954,0.8687604243663591,908992000000
0.38676124880770835,0.9390966382911496,0.8710796772065008,908997000000
0.039653679767733735,1.0274764848158158,0.8716596194064535,909002000000
-0.3644077888826677,1.0321164187404197,0.8747958555214079,909007000000
0.19556431997888507,0.9638909312287387,0.8779887232633006,909012000000
0.17046587478656697,1.0162885145869018,0.8797989921802364,909017000000
-0.4567712965764984,1.0126501723789532,0.881810945037419,909022000000
0.15489803121622137,0.9994198561619672,0.8846976020184371,909027000000
0.24257849665853426,1.029641368842455,0.8860008821233525,909032000000
-0.490754449698116,1.0378475349824448,0.8874292865522225,909037000000
0.24810215160600563,0.9693550112068093,0.8895629934998974,909042000000
0.2022509110400974,1.0209164510652717,0.8896009442888314,909047000000
-0.4899308419953974,1.0201065598464534,0.8910213146393898,909052000000
0.45340384310610954,0.976028402778749,0.8921003566260826,909057000000
-0.31605547827014435,1.0722006223586424,0.8922344563660866,909062000000
-0.10642002505525965,0.9827919112294279,0.8942815761782666,909067000000
0.45306601166097643,0.9974720696889404,0.8945010788315956,909072000000
-0.4712172816619967,1.0962637942314686,0.8945451950341493,909077000000
0.29813085176984705,1.0021501270644129,0.8963331120738234,909082000000
0.22832090389918128,1.060918996241632,0.8957639183352843,909087000000
-0.4439220083554519,1.0396226313871344,0.8960556882620111,909092000000
0.26430697973957706,1.008541957618778,0.8972414010756331,909097000000
0.07238660546066544,0.9856269387875041,0.8967340841359701,909102000000
0.022764846495789935,1.027789947714014,0.8963148162337196,909107000000
-0.29577890777249494,1.015670741409113,0.8951226796151596,909112000000
0.20731184099769215,1.0363606511804535,0.8955523806306357,909117000000
-0.002142028864913833,0.9910454354035978,0.8945116017653703,909122000000
