acc_x, acc_y, angular_z, stamp, 
-1.2984201483959334,-0.0021188203516620697,0.0005838911283192216,484913000000
-1.2470577238088518,-0.025581947844545806,7.496622997066207e-05,484918000000
-1.2916266585423724,0.014244392577877296,0.00013178346984301932,484923000000
-1.2782616370998436,0.009854414992178507,0.0001563765669977854,484928000000
-1.299415634900925,0.002939841690261097,-0.0001041527113195434,484933000000
-1.2974098906882539,0.0012288634116290713,8.878704335488116e-05,484938000000
-1.3097428868110341,0.015849330750851806,0.00016480416132919824,484943000000
-1.3047899148956406,0.017367955664916706,-0.00017455896575251133,484948000000
-1.3045810756964875,-0.008492433128379141,-0.0003522856764092857,484953000000
-1.3040839481246451,0.0013237832064406001,0.00027551076099869816,484958000000
-1.299751134138012,0.012522172688279796,-8.281348106436267e-05,484963000000
-1.2845647424408846,0.0011260093736139573,0.000324369777092704,484968000000
-1.323391370722418,0.02566436573554365,0.0002694777004538889,484973000000
-1.279792664193906,0.010726173665346275,-3.238450949869515e-05,484978000000
-1.2898205039336497,-0.004212139029906348,-0.00024542160255648497,484983000000
-1.295788875381818,0.01440228787775163,-0.00013617104962976,484988000000
-1.3258135586852335,-0.007056702708409288,5.523240629006408e-05,484993000000
-1.314558375660114,0.017422851631447876,-0.00020000993576556835,484998000000
-1.3334110544318345,-0.01580775253846843,0.0005846214391541174,485003000000
-1.3138418312403835,-0.04296150337190151,0.00012597604758779823,485008000000
-1.2820493776811,0.002244355072883328,0.00045417560379566784,485013000000
-1.3277995654640737,0.0023067692696596637,-0.00020291065675547002,485018000000
-1.3213488376273872,-0.0228952868685909,-3.2922378305653995e-05,485023000000
-1.3112809561542504,0.006281232290344279,-0.00018738508137288516,485028000000
-1.3062886037377752,-0.01635566404475915,-0.00027677658174235167,485033000000
-1.3022203293494123,0.014629928870851766,-3.038866106563159e-05,485038000000
-1.3390075536734394,0.01986472438366392,0.00023762799778002318,485043000000
-1.338502585543491,0.019860772798889162,0.00043710114714642717,485048000000
-1.3327994773840899,0.011175971139323374,5.337436674616376e-05,485053000000
-1.332716843107007,0.04045327788722783,0.00025090149344417494,485058000000
-1.3221821581318605,-0.006601149161024253,0.00034791347869704916,485063000000
-1.3432832585606163,0.02217612988442959,0.0005593848977761229,485068000000
-1.3199943166540824,-0.024817403221447234,0.00025664276380785563,485073000000
-1.3173895987591493,0.01664366108045961,-0.00020384343007727747,485078000000
-1.3589433575783958,0.0023894255156867482,-0.00011308564023692082,485083000000
-1.3396725880734646,-0.0069342351752247205,0.00011527399113468457,485088000000
-1.3453859295512238,0.006963721720201362,0.00010518079784019516,485093000000
-1.3287692843710088,0.0006112821273894769,6.176359904195344e-05,485098000000
-1.327896947740653,-0.002315537818552341,-0.00012880092651447692,485103000000
-1.3368545935416705,-0.0016032124162232006,-0.0003031327305030846,485108000000
5.381689370692457,0.01827465829107535,6.17853011848857e-05,485113000000
-1.232102421836123,-0.007868000364509237,9.116075104225804e-05,485118000000
-1.4255994400615166,0.02970182920515676,-9.91673452770225e-06,485123000000
-1.3731239170194531,0.013653171557678156,0.00023297531715140552,485128000000
-1.3329495337798072,-0.01648717392250925,0.00014391056847563763,485133000000
-1.3628463875905603,0.002763291854424598,0.00013475055903228438,485138000000
-1.3304492348177337,0.008073662837419764,-1.5253273728066897e-05,485143000000
5.553945122257653,0.02059296544537235,0.00045973711373333833,485148000000
-1.4946839907017768,0.006514065499422337,9.231650581918674e-05,485153000000
-1.3973756730902644,0.01007853931521369,-0.0004647229784216172,485158000000
-1.3552508536105408,0.02476268076907195,0.00031250163838612935,485163000000
-1.3536551422249679,0.002284383604583477,0.00018419144156387823,485168000000
-1.3536151621431494,0.00991351761099388,9.292670940783593e-05,485173000000
-1.3487963715079732,2.0179448385285875e-05,-0.00013482813488471492,485178000000
5.55375241558505,0.011093357610662435,-0.00021015345307281053,485183000000
-1.469612553303973,0.02568067727685465,4.76980723415103e-05,485188000000
-1.391659791463857,-0.025584633712315057,-1.5601509695714656e-05,485193000000
-1.3405958642534894,0.00884522562064296,-0.00012585235965395297,485198000000
-1.3565835635193417,0.02672620902416549,-0.0002868451706443432,485203000000
-1.3318155246389765,0.02479594228222324,-0.0001458920590355465,485208000000
-1.3513171822297014,0.035425533068230534,-9.667745430220841e-05,485213000000
5.534720307190196,-0.009848723239574291,0.0002486100497885893,485218000000
-1.4508092900541065,-0.00484257979978249,2.7628208964377774e-05,485223000000
-1.3897664091869109,0.020134024060525564,-0.0001894483052981173,485228000000
-1.3759013323301923,0.012765860830479099,3.178618611365491e-05,485233000000
-1.3570153354085552,0.00789687970117127,-0.00015504485833803657,485238000000
-1.337899628846182,-0.022200082659533993,-9.493705927415578e-05,485243000000
4.253499459418994,0.009026777847890587,-0.00012105213521158037,485248000000
-0.14443604224411857,0.02581323370435519,-0.00015777889192501168,485253000000
-1.4608942180925866,-0.024436772589374954,0.00021761189792580054,485258000000
-1.4054762690640341,0.010319496125954977,0.00021735742962203532,485263000000
-1.3419066139059543,0.026393904383321093,-1.8219072031861646e-07,485268000000
-1.3348365103228543,0.0027090385424991667,0.00012574126847711786,485273000000
-1.3438001704930425,0.02791585946595332,-0.0003336613008487392,485278000000
5.366150765724964,-0.01131751779644971,1.954361830814053e-06,485283000000
-1.2472881321403217,-0.028035091045372218,1.7960137491036477e-05,485288000000
-1.435449501313966,-0.018450647605865754,-2.899661483788926e-05,485293000000
-1.3702623249756307,0.017394823026983204,0.0003121351588870638,485298000000
-1.3724080674427641,0.00028034340962548865,0.0002058326157128883,485303000000
-1.3284678565207744,-0.005407125087822437,0.0002586069515867078,485308000000
-1.3479151372856206,-0.030858093716863967,-0.00028206178680619925,485313000000
5.601679373683659,0.0026806048499328898,0.00010614525741042523,485318000000
-1.454780808825758,-0.019474144423348154,0.00034318501177170197,485323000000
-1.3848618101518209,0.0006754841258728829,-0.00020035217130619137,485328000000
-1.3749101848999146,0.002259170664586189,-0.0001012261578533272,485333000000
-1.3274253631137458,0.020488287562776583,-4.935754246603903e-05,485338000000
-1.3622419505101149,-0.007691434245812581,-0.00022502159246149542,485343000000
-1.3597849288816306,0.03805314908481672,0.00024069292481257267,485348000000
5.593584748724567,0.018497411681226386,-4.667979125132009e-05,485353000000
-1.455429663572922,0.010708293707891482,0.0002091155960779435,485358000000
-1.3781080990626042,-0.0013729490792109477,-1.605134232477174e-05,485363000000
-1.3441168593072623,0.004880390277260292,4.2250984482272705e-05,485368000000
-1.3388137356507803,0.01534959557467899,0.0005667116357049672,485373000000
-1.313429831136083,0.003939762164534025,0.00010084852342189958,485378000000
-1.3350377940477258,0.04862076164721944,4.721208980291657e-05,485383000000
5.544643441171546,-0.03190635987118549,5.420719631921872e-05,485388000000
-1.424212583182598,-0.00613247356789198,-6.677736870685875e-05,485393000000
-1.315608649757378,-0.004133269668927649,-0.0002384510369502697,485398000000
-1.3411901508429975,0.0050363821468351055,-0.00035250781889472195,485403000000
-1.3232513797359264,0.0008300778035163553,-0.00012729157278706937,485408000000
-1.3176242248438825,0.012042109117028915,-2.3812606122693745e-06,485413000000
4.303217950624542,0.007669130046741709,3.727268266745741e-05,485418000000
-0.058795220356295586,-0.03049531742781734,6.162922822799042e-05,485423000000
-1.4058838648939445,-0.028201627226057305,-0.00010339291500317269,485428000000
-1.3276145118369234,0.002038100007642057,9.683110880484767e-05,485433000000
-1.3234205427886234,0.0029929096327314456,0.0003701224608630866,485438000000
-1.2826454189692975,-0.005283936794461571,0.00011877128773228835,485443000000
-1.2825094350570263,-0.010051407556996409,-0.00017310037630142565,485448000000
5.429079672821326,0.005441103842613624,-3.9089253048256114e-05,485453000000
-1.1941897394055114,-0.012117079674674807,4.0417297733029084e-05,485458000000
-1.346618039488079,0.03127013151786426,-0.00015303936536726403,485463000000
-1.3229778012301199,-0.0036624028033721036,0.00037650586495732485,485468000000
-1.272143408488417,-0.019166241558056688,3.1095132676122414e-05,485473000000
-1.2756971645400363,0.006564164389218768,-0.00011218760886321622,485478000000
-1.2911898298135318,-0.013631362350079973,0.0001461187197674783,485483000000
5.626130429662994,-0.0021441678303624114,0.0001358990377706726,485488000000
-1.3891225236289357,0.017823829964375027,-2.9553873714852522e-05,485493000000
-1.334027337603536,0.00756945151014749,7.817221234036308e-05,485498000000
-1.3054686497356096,0.016113177469203915,-0.00018395341080444308,485503000000
-1.2874128294417613,-0.022222509790983922,4.025833265925734e-05,485508000000
-1.264096430699754,0.035889952176594866,-0.00020155697451654342,485513000000
-1.2672052843275639,0.015940520986313243,9.654409204403433e-05,485518000000
5.659905962046246,-0.02425191284999668,-0.0002382569229880125,485523000000
-1.3540431858765327,0.003046765688229238,0.00015209644869683717,485528000000
-1.2840715830963165,0.02314397783434349,8.588997586739474e-05,485533000000
-1.248568146642615,-0.008846977361967788,1.4352052691279075e-05,485538000000
-1.2610611541210586,0.02378137789069316,7.589597319252333e-05,485543000000
-1.2470055003191312,0.0027632379319715078,-0.0003323282684874957,485548000000
-1.2066662857482806,-0.005055696902930811,-0.0001330753986718091,485553000000
5.655934142063449,0.037127747248089635,0.00010616931447552199,485558000000
-1.3606325041160245,0.0401421835279096,8.289967798312382e-05,485563000000
-1.2659393978415197,-0.0030219676895961653,0.00016979572182385225,485568000000
-1.2621990102730833,0.02437106143902106,-0.00012928749384144198,485573000000
-1.2429699727924164,-0.02118601912085404,-0.00027830801386974905,485578000000
-1.2603468891965919,0.011598258496561523,0.0001077277687125039,485583000000
4.398469429808758,0.012745463828234016,0.0003374806674639824,485588000000
0.02185382756083351,0.018551816089752312,-0.00020887692834113968,485593000000
-1.3183891431870354,-0.01736894664132203,-0.00017171341462159697,485598000000
-1.253321100597141,0.027625724606942827,-0.0002528181042813839,485603000000
-1.2198397265228014,-0.004089487575335673,-0.00024297633631104656,485608000000
-1.2307130914903543,-0.02796861498100958,7.069562859411531e-06,485613000000
-1.2135090901463146,-0.005290039126370969,-8.674308457864092e-05,485618000000
5.517794112718589,-0.006272049667809625,4.676042605498616e-05,485623000000
-1.0992710611988614,-0.005891225825925304,0.0001435583727168783,485628000000
-1.273588023841477,0.037314170644873926,-0.0002794943688470819,485633000000
-1.2096646721795983,0.006439853622814831,7.05365164835282e-05,485638000000
-1.2195223544710552,0.013120188337533176,0.00013785843840277175,485643000000
-1.1999362368363446,0.0028424868578625544,0.00015109053153492105,485648000000
-1.1869470507809727,-0.007117169408506136,-0.0005564750622599418,485653000000
5.734295031508121,-0.0026872838551818424,0.0004749034701977196,485658000000
-1.2651987701127199,0.007406288756513405,-0.00013949469634653302,485663000000
-1.2069019981954898,0.004087814051510576,0.00011310590727636871,485668000000
-1.1503337835176064,-0.013895219516707157,0.00021173662270554942,485673000000
-1.1823167767382923,-0.003604979711509055,0.00024884243245516205,485678000000
-1.1504425767348865,-0.0004986623241971994,-0.00037610952340110714,485683000000
-1.1377979567353473,0.0053771725192056615,7.720435603134117e-05,485688000000
5.784453826766856,-0.012351144757346494,-0.000205523146333905,485693000000
-1.2525369489888027,-0.018779031937788883,-1.9758929132363824e-05,485698000000
-1.1938478153439083,0.04791781724294353,-0.0001688141550191611,485703000000
-1.1596825703797697,0.037096031603617616,-0.0001766514161574494,485708000000
-1.114861775928575,-0.011104200769278934,9.842908423546137e-05,485713000000
-1.1118786164214005,-0.026836409020992172,-0.000276331970997091,485718000000
-1.1127042262135596,0.011136600206450693,-2.8454924067376744e-05,485723000000
5.7909702475496525,-0.011541068874449018,0.0001784998264188886,485728000000
-1.2039532745099284,-0.018322798270424937,-0.00010971225573783444,485733000000
-1.1248517786485597,0.0023826647292042374,-0.00010766680686008526,485738000000
-1.106815779512102,0.03212286819508019,9.14244645637434e-05,485743000000
-1.0869958893814828,-0.016276000931359308,-8.352937272692366e-06,485748000000
-1.1083886538311356,0.00544472771926597,0.00021254037825012203,485753000000
4.537079699189138,0.0077547095655818325,-6.538158157796038e-05,485758000000
0.16807074814477235,-0.029175467219605684,5.8177781686136164e-05,485763000000
-1.1785162605776056,0.02584996074172394,0.0001886236813555536,485768000000
-1.119007879157459,-0.003103839366281239,-0.00044735248793703077,485773000000
-1.0535525969986503,0.020789501659747932,0.00029722687186732545,485778000000
-1.0788810371398032,0.0014719136802305859,-0.0002907593217800334,485783000000
-1.0679866603973265,0.014420675560242733,0.00018695151742723098,485788000000
5.686386022595337,-0.044707964953833515,5.616904307369862e-05,485793000000
-0.9315746971178152,-0.021650587402926934,0.0004904858363058721,485798000000
-1.1172446529289835,0.015054217461178871,0.0003908375513241185,485803000000
-1.0386210249989278,0.01110146860152242,-3.2105889896392624e-05,485808000000
-1.027863157778661,-0.0008686020155529587,-0.00025973074097233146,485813000000
-1.0377863583561726,0.0050351235706394045,0.00017106936172225885,485818000000
-1.014200663521604,0.0018238061368421503,-0.0003165697576631342,485823000000
5.947382798691999,0.034500429342510165,-5.558322422165803e-05,485828000000
-1.099186635574532,-0.012698229525644915,4.26994821219412e-05,485833000000
-1.0287115767267234,0.010559311368021587,6.312830744933175e-05,485838000000
-1.0014674236116368,0.014220928806385525,-2.6851635823092464e-05,485843000000
-0.9644353787067106,0.013566077427468116,8.604363268272921e-05,485848000000
-0.9806080942585166,0.02392570118489103,0.00025989927715920933,485853000000
-0.9857105436782189,0.035480618900203556,0.0003721744622611627,485858000000
6.00208228560465,0.008194317722078823,-0.0002173242804514231,485863000000
-1.099291666519957,-0.022956875387024282,-6.620864491753619e-05,485868000000
-1.0109383433428172,-0.003144328341457279,8.08993754988963e-05,485873000000
-0.978788541399287,0.005189214539552207,-0.000342252499923889,485878000000
-0.9705499459868097,0.003344162447598534,6.469792479269721e-05,485883000000
-0.958321851973617,-0.010217185854750644,0.00013401832181713838,485888000000
-0.9551108210358528,0.033422604762992476,-0.00024870235340795845,485893000000
5.969434781766229,0.006220104631236519,0.00024089348387173066,485898000000
-1.0086630932276026,-0.005678635862780704,0.0003476701031201933,485903000000
-0.9886940867800796,0.005728681429202749,-0.00012486934347099774,485908000000
-0.9204417594019381,0.010303678747555828,0.00014236469279566434,485913000000
-0.8803544212117927,-0.003028390302110556,-6.168005200837308e-05,485918000000
-0.9345025737125625,-0.0007274043313182624,7.658590837109115e-05,485923000000
4.746715093194642,0.01250792466265676,0.0003719406030961183,485928000000
0.35289664348740246,0.025944593044713943,0.00012822851613691715,485933000000
-0.9476023874136199,-0.009835624643567301,-8.238637386280282e-05,485938000000
-0.8950153213551316,-0.028780205653242817,0.00014427013569282758,485943000000
-0.8843125334439155,0.003909779293628112,9.724559736594199e-05,485948000000
-0.8637149012543656,0.03437194429309146,-0.00010907395337017972,485953000000
-0.8467621146617068,0.008289190562985528,0.0002535136436680958,485958000000
5.914624978738612,0.01068919756709663,-0.00033353319606083695,485963000000
-0.7468182532708174,0.009503572847562616,0.00024150760859649066,485968000000
-0.8852969032343617,-0.006198306023480219,-0.0001772851934023785,485973000000
-0.8789909844599442,-0.013157527935553335,2.0646804922043794e-05,485978000000
-0.8260207332488385,-0.005503071923633485,-0.0002381942467019428,485983000000
-0.8084258942184381,0.023228113111396363,0.00012311217272417642,485988000000
-0.8090490272194266,-0.020495112260005416,-6.359696111727177e-05,485993000000
6.185055699822053,-0.01673072888549579,-1.5560639838900545e-05,485998000000
-0.9316397843233942,0.002892676199452982,4.6242685699166896e-05,486003000000
-0.803463650461183,-0.011997526048628977,-0.00012763317363709438,486008000000
-0.800000660253153,-0.028683324162815757,0.00028612209702942874,486013000000
-0.7791963734986291,-0.0033170903112894655,0.0005256643899532635,486018000000
-0.7531774413750678,0.010041617072045617,7.929422507764825e-05,486023000000
-0.7532514081473679,-0.0041376889062471655,0.00016965664762205767,486028000000
6.192294203526432,-0.007658812943941584,0.00013177696521942745,486033000000
-0.8839139894391715,0.011390996131772368,-2.3026341225695445e-05,486038000000
-0.7790942055344822,0.011599154133373925,-9.592688614296578e-05,486043000000
-0.7420661555832145,-0.021346431196852304,8.114592947935295e-05,486048000000
-0.7366893768214327,-0.014645584260115311,-0.00016691140471030626,486053000000
-0.6913315496077885,0.0436636362000903,0.0002780888536302862,486058000000
-0.6949605219277958,0.004487718282979342,0.0001262388208306478,486063000000
6.212901883853239,-0.0085626852534713,-0.0003754527379181677,486068000000
-0.7949297205533449,-0.006967175143939766,3.879328894363266e-05,486073000000
-0.7426760180901466,0.036627658958668215,-0.0003590166166762163,486078000000
-0.6977938076804332,0.048120653448737644,0.00025060585533208716,486083000000
-0.6852664895890804,-0.0026790351908599196,9.631572674499701e-06,486088000000
-0.659986312335158,0.010472796275137725,-0.0003249670142230061,486093000000
4.979270756682797,-0.017979451214647182,-0.0002737444796225841,486098000000
0.5969679214037359,0.04524234023117996,2.9188366158264955e-05,486103000000
-0.7071033514056099,-0.029801490339726466,0.0002879592847877436,486108000000
-0.680833007080546,-0.004143880047851917,2.8609600212557224e-05,486113000000
-0.5985252068083903,0.002691918893136987,0.0001960477144363095,486118000000
-0.6085056783068887,-0.0025394110184324982,0.0003028736018673106,486123000000
-0.6280130143731055,-0.014021202539568706,2.358407855583892e-05,486128000000
6.169471953570847,0.00039281904755685253,-0.00012740092667448162,486133000000
-0.4973887566396841,0.03529917100389955,-0.0001627155934275997,486138000000
-0.6717801103649579,0.004085526710661462,6.303374280951159e-06,486143000000
-0.5911650909269892,0.006111172660651082,0.0001982197609758525,486148000000
-0.6025121748126308,-0.02198313936342743,0.00013213697466911537,486153000000
-0.5814285102736726,-0.017759256711140082,0.0004364248030661762,486158000000
-0.5323029942907754,0.010119033405817471,4.085987425790366e-05,486163000000
6.436695875521604,-0.027694201924616094,-7.753572450426413e-05,486168000000
-0.6068230703569387,-0.01879508202710814,0.00024889158736315676,486173000000
-0.5630261049042431,-0.01973379966497752,0.0001988088199798465,486178000000
-0.530262751093156,0.01721241830489505,8.26062911491002e-06,486183000000
-0.5257614582157824,-0.012633002385255016,0.00016997701632982928,486188000000
-0.5079197622076227,-0.013268013391248435,-0.00013817796087337182,486193000000
-0.4810510750256909,0.01395672547608326,9.937609799435381e-05,486198000000
6.480706362195669,-0.002926398188026003,0.00021669012232838832,486203000000
-0.6321408717148572,-0.01097304147082515,-0.0002763371683845285,486208000000
-0.5167846238722029,0.022566224328487424,0.0004210920598427655,486213000000
-0.48987836939184354,0.013539551676036519,3.6556305507722785e-05,486218000000
-0.4557342530149783,0.004819755838516906,-3.0392653849487855e-05,486223000000
-0.45006008032378936,0.02926147509927363,-0.0002997278453459528,486228000000
-0.4263086529101447,0.006674293931518029,-0.0001482251844827361,486233000000
6.526750989883068,-0.008409797181721019,-0.00010420796511843362,486238000000
-0.5114231293942341,-0.02438083006914508,0.0003095269978347273,486243000000
-0.42956098660448266,0.014690537936623688,0.00022062738578014702,486248000000
-0.40105585908834535,-0.015271519537899333,0.00044335279234117503,486253000000
-0.42202654363712466,-0.0001849227730272426,-0.00014836691135702558,486258000000
-0.37799046462162256,-0.04609943273404989,0.00011473235959614632,486263000000
5.3230409402696415,0.002364440228773708,3.330507609814055e-05,486268000000
0.902316714391676,-0.01324578440046622,9.50962519360682e-05,486273000000
-0.42450538786565745,-0.028935002584728583,1.2875170787893022e-05,486278000000
-0.34931215742358573,-0.000992182138216269,0.00014818905439043263,486283000000
-0.340089751340733,-0.009345196986741409,0.00018332122985522615,486288000000
-0.2943204875298625,0.029208665815835175,-2.9203115350738006e-05,486293000000
-0.315849689599512,0.011926552859222951,-0.0002058171269057572,486298000000
6.461395241399573,-0.018819840850399023,5.5964963997939384e-05,486303000000
-0.18098394075594262,-0.02309095565768034,0.00011544944474942994,486308000000
-0.3603887512762178,-0.04415497921629669,0.00028936240033664896,486313000000
-0.28427298272783463,-0.002000863117785112,-0.00021875699394292074,486318000000
-0.2704603118623086,0.008726453670128247,0.00031747650008398347,486323000000
-0.2564856398929055,0.013890119384024619,-2.924651798936296e-05,486328000000
-0.21410892778131466,0.004941816697483643,0.00021311956796719593,486333000000
5.080132605375109,0.021916161550435857,-0.0002283144680700007,486338000000
-0.298789963097954,0.021814202497767374,0.00026588179813804544,486343000000
-0.24542945669896857,-0.008449033295037371,-2.0872253535907864e-05,486348000000
-0.201677917852311,0.007744511081721926,0.0005127506319751496,486353000000
-0.1908985555793508,0.029307440720827284,0.0001203526494879683,486358000000
-0.20893190637938097,0.013374301030467606,0.00014910842889586995,486363000000
-0.1274496060525901,-0.0183427055413826,-0.0002812126322277958,486368000000
-0.1383357122063622,-0.0031668004200392204,-0.00017308123421074287,486373000000
-0.16916736029784513,0.0010430398186635763,-6.976996347126595e-05,486378000000
-0.09611499102626156,0.023569788134686073,-1.618259491344465e-05,486383000000
-0.1386671751688437,0.0029620431227494605,-0.00016566115023296658,486388000000
-0.09934073227004533,0.013851179175035006,-0.00014911451633513925,486393000000
-0.10489876260371764,-0.002563834212314206,0.0001342990495745858,486398000000
-0.079732032657355,0.019857650889647967,-0.00026071059037649513,486403000000
-0.08754440054122357,-0.009598180362426935,0.00018808387890719317,486408000000
-0.09811624939086835,0.0008011387001868334,-0.0001296289358117926,486413000000
-0.06552427064238783,-0.014850316104963186,-0.0002021980672667859,486418000000
-0.1573168560903642,-0.1911425343090404,0.0009124116239928198,486423000000
-0.023385169737778586,0.014912970138617698,0.0023814319449855237,486428000000
-0.04035736922891897,0.012273862702388234,0.0026677330605937386,486433000000
-0.008180829925292373,-0.021403842548933464,0.002930533853964835,486438000000
-0.023685617896229805,-0.0064854432283505065,0.0032495744029785115,486443000000
0.010354076649783935,-0.006649420590944251,0.003022518500769268,486448000000
0.042410164419392625,-0.02653997177799145,0.0031692587286426236,486453000000
0.01318527663578589,-0.03076576908264054,0.0025519656956221005,486458000000
0.03810770214270305,-0.01186348690867461,0.0024164628486530375,486463000000
0.03409243952100348,-0.029155856754380552,0.001785390561216848,486468000000
0.022432248570866356,-0.01891081091027912,0.0012009740867169104,486473000000
0.09044152436827801,0.01455825817972323,0.000435610577977607,486478000000
0.06872157057607714,-0.005420338798532362,-6.664627571864208e-05,486483000000
0.08197337232531703,0.03283286172304615,-0.00021421522487448012,486488000000
0.16294238105420317,0.20808993717286023,-0.0006425644329200249,486493000000
0.18969590063725938,0.14404550474007924,-0.000787371667530576,486498000000
0.2211355488991355,0.14244213497477667,-0.000812136398364055,486503000000
0.19819720427260468,0.15564277684727854,-0.0012311883313689397,486508000000
0.2455541495237953,0.11452827816606276,-0.0008430384916552481,486513000000
0.2681111369449664,0.12189176774202491,-0.001177229883168014,486518000000
0.31375395733072164,0.10861647135457257,-0.0010758157707579119,486523000000
0.3198097960820896,0.11238298573631147,-0.0012711439823558982,486528000000
0.34411714431969737,0.06514503362313027,-0.0006922936394836278,486533000000
0.41966495422244743,0.07377488388954342,-0.00031136660196889025,486538000000
0.4522360152312374,0.06327907356260921,-0.0009552584666560535,486543000000
0.504131579061579,0.04550122558885004,-0.000498229309244849,486548000000
0.5098857002062068,0.05882370513009155,-0.0005176958673096978,486553000000
0.5224396019597211,0.05371909324551533,-0.0004362088371379808,486558000000
0.5482533844580693,0.05183978381933001,-0.0007688811631614024,486563000000
0.39981034520559117,0.02476987464946466,-0.0011557542743970265,486568000000
0.39870979714935423,0.03692246739876333,-0.0007912470577298447,486573000000
0.47026721697467877,0.015457635885623554,-0.0008063114317650293,486578000000
0.49812155599192376,0.006371452991513893,-0.0010874498885823656,486583000000
0.38955886713440185,0.03744368312737348,-0.0008894369683555528,486588000000
0.46397967003073515,-0.0006561695637052273,-0.0013529635825207738,486593000000
0.5187242403425427,-0.028774660766126274,-0.0011902563216706968,486598000000
0.4807798912066101,-0.010691967365680942,-0.0014097297067558342,486603000000
0.8470893283419213,0.02879259063344463,-0.001227554885718542,486608000000
0.09328647722659575,-0.07250453026970549,0.0003656039154463562,486613000000
0.04776954928897811,-0.31119356338151327,0.010513212804937952,486618000000
1.097275144673411,0.06530352044843864,0.02756410035940623,486623000000
-2.9411691185740856,-0.05322052626409564,0.036701494310434866,486628000000
-0.8581962494520001,-0.8916921241910853,0.03887617026396113,486633000000
-0.030849559677502563,-0.27548791968105535,0.03858569639529086,486638000000
0.24730513037184063,-0.10041204538287073,0.03745518513406766,486643000000
0.3249499450942587,-0.024897102197075763,0.0359458281415444,486648000000
0.38262554144902905,-0.011779713815344784,0.03515199986312394,486653000000
0.3768891332874726,-0.06652996192604088,0.033852125409455536,486658000000
0.4145287202470759,0.08658175736943849,0.032281818860472794,486663000000
0.38829774127420885,0.1366670643700128,0.03031183034342192,486668000000
0.4247526212248684,0.14750918888882544,0.02788200482554032,486673000000
0.422199343680042,0.06507442877574829,0.025335096007012337,486678000000
0.44558507861384045,0.10435633873499187,0.0226864165498332,486683000000
0.46747176460248485,-0.03082453389066596,0.019878662272214655,486688000000
0.4648529298620561,-0.019993933614588184,0.017354553350551114,486693000000
0.4649190434499435,0.0017155305760476027,0.01527474326300007,486698000000
0.4938533485942018,0.004135099458468345,0.012913037818846576,486703000000
0.5081867235813752,-0.03668540657070306,0.010702831767551985,486708000000
0.5222427515865327,0.02100969747866108,0.009015398098403859,486713000000
0.52899967696159,0.029546627274841482,0.006983716694489649,486718000000
0.192907278421747,0.21410983130139513,0.006075579318661428,486723000000
-0.1456289297789995,0.23256467412581025,0.006411154985567756,486728000000
2.3128567281246153,-0.6643734495439496,0.007523692477707029,486733000000
1.4544281547026774,-0.09931975235855263,0.010775992943663588,486738000000
-0.7815817007826854,0.19556780919882263,0.010806759095560855,486743000000
-0.6301668316917938,0.162120216190686,0.011498755253916243,486748000000
0.9729454449229291,-0.282065520923374,0.013125814327998224,486753000000
0.9945428862724511,-0.0077347590522824135,0.013216733415538204,486758000000
-1.0228266919467732,0.09110945572547749,0.01378301741904362,486763000000
0.43323248780498413,-0.03226523519649975,0.01495052709809907,486768000000
4.1045975698276855,-0.13995554352025613,0.013735953790409788,486773000000
-2.7609853128463535,-0.14094425730769755,0.013625523685665534,486778000000
-1.6403327737562963,-0.004010559076940616,0.012950211452017754,486783000000
6.694421599777174,0.1368552856966661,0.011273576171118405,486788000000
-2.210707710914844,-0.23147216724445652,0.010920581511343761,486793000000
-4.255693688984941,-0.2786356573001944,0.011021558459609112,486798000000
9.628240949115261,0.42760245158205284,0.00214841943371948,486803000000
-0.671007341822625,-0.014384259971145244,-0.0034053871765350927,486808000000
-3.0095711618844954,-0.3867492265537344,-0.0036910240646759462,486813000000
-4.536167558345171,-0.2783648773288966,-0.003542528452706172,486818000000
10.765354652535713,0.6262352446652075,-0.010186349908911941,486823000000
-1.8947710711784995,0.022654543064210227,-0.01305841361347333,486828000000
-1.8774855943271591,-0.2869615620746682,-0.013519501462650161,486833000000
-4.621991511349005,-0.30548227776882103,-0.01397169588640438,486838000000
9.110352457901742,0.6219100074118586,-0.01977268026744227,486843000000
-0.4189445123396929,0.013760959424448028,-0.021284954168956857,486848000000
-0.8814712164196878,-0.19960802111325363,-0.022711462651418882,486853000000
-4.7384073145970405,-0.3104670334545989,-0.022175631435896834,486858000000
3.6787853032611646,0.44793891854807477,-0.026505957158016003,486863000000
5.374930481398561,0.016998825775038855,-0.030754191826501964,486868000000
-3.6131527091235287,-0.26600201932389644,-0.031193954975275582,486873000000
-4.937983551876653,-0.03032512587347682,-0.0310518413571999,486878000000
0.36966933688482795,0.2844686893224174,-0.0333253580399306,486883000000
11.82628838273893,-0.010596531476070734,-0.031162055268570205,486888000000
-3.694312459529368,-0.07749291914707584,-0.03054293210280276,486893000000
-4.992315794407299,0.04825412308123576,-0.030585459763161668,486898000000
-5.560631583080983,0.19690380156083523,-0.030955275850497614,486903000000
17.242636922792762,-0.23238563251088729,-0.021442200223162622,486908000000
0.43168229827252785,0.043904954594496386,-0.0161305789016054,486913000000
-4.552797541822052,0.20726641615797575,-0.016256917262216192,486918000000
-5.238425745911387,0.21495000139785955,-0.016420252407265752,486923000000
-5.8360074309780865,0.24041383035554761,-0.01648067885566707,486928000000
19.234462765364896,-0.721647702960796,-0.004598782905049193,486933000000
0.2704463165311433,0.06600761012167718,-0.0012164304954341103,486938000000
-4.059792773492918,0.38009778050229454,-0.0008809805118744837,486943000000
-5.278758777223384,0.35807786541027403,-0.0014359384997877853,486948000000
-5.835250118210557,0.26945641720554203,-0.001314889938437294,486953000000
14.378167626431498,-0.955084964429578,0.007911338233592032,486958000000
3.0433189897058535,-0.03596722848574209,0.011422734159886167,486963000000
-1.611230611264988,0.35317845799609365,0.012639129519445612,486968000000
-5.297170807945149,0.5665106050605929,0.011805086649130735,486973000000
-5.808573963653014,0.32026470939775264,0.011437237830964455,486978000000
10.500120996790853,-0.9255110050619484,0.02000705811063789,486983000000
6.043306805588222,-0.26190495669296404,0.024564549498622523,486988000000
-2.9485574386009707,0.5180943223849384,0.025264154003095535,486993000000
-5.568710058513597,0.6109352281082118,0.024590597119753515,486998000000
-6.097319515050112,0.33228240054059494,0.025139135446558342,487003000000
18.189284845350787,-1.448079450994597,0.029814984877343992,487008000000
-0.9793795605974557,0.27871591437031096,0.029165160140641907,487013000000
-5.196724877720132,0.5977935814988522,0.029126431602382957,487018000000
-5.780902926258108,0.3964382082099383,0.029266977257496985,487023000000
-6.263064007442759,0.241003303093399,0.02882390177522703,487028000000
21.252519241209413,-1.4029722909330782,0.02016590058305736,487033000000
2.545620926709086,-0.04636810155562929,0.017758747933168353,487038000000
-5.052733506839729,0.3187484740310281,0.017026256682093125,487043000000
-5.640566326018698,0.3014549059979857,0.017181548308571576,487048000000
-6.098043929661943,0.2744810684985951,0.016974118285696043,487053000000
-6.479583613173121,0.26375764232342036,0.016825253142621285,487058000000
26.828835054452277,-1.2050740475409216,0.001528926048642814,487063000000
1.568911736979775,-0.025857838396864737,-0.0013899232029555375,487068000000
-5.278671415102671,0.10352883585074261,-0.0013969503036767646,487073000000
-5.822657963760874,0.1698747893127574,-0.0014125712232363756,487078000000
-6.260453413906763,0.24871331689100365,-0.001775201350263941,487083000000
16.744665184486113,-0.4741167432821763,-0.012585269508071189,487088000000
5.209451848620918,-0.16990038443193212,-0.016924219991065644,487093000000
-3.856687903905182,-0.08932736436366104,-0.017602639426497185,487098000000
-5.6970381232328355,0.08503751954526367,-0.01774682845077362,487103000000
-6.182960728764031,0.20964020558831567,-0.018021988788792753,487108000000
-6.58058182667478,0.3017997879771805,-0.018163879239857593,487113000000
26.255668313251928,-0.5507283196554523,-0.03280795142311099,487118000000
-1.4628501057746095,-0.16911547496667348,-0.034538696549352425,487123000000
-5.639676182878575,-0.08250663260250758,-0.03475946740655218,487128000000
-6.117358316602414,0.1266612975153444,-0.034585578924321125,487133000000
-6.5008160013009455,0.2909471115020986,-0.034628671516443235,487138000000
25.493743629843454,-0.1735662353011654,-0.04505945202825657,487143000000
-2.9380353679328683,-0.1903798410123443,-0.045353328508557986,487148000000
-5.49503453431676,-0.10614667822530639,-0.04493604254785985,487153000000
-5.99121857256478,0.08930420709969476,-0.04519126394592474,487158000000
-6.440682791533421,0.29950994722769814,-0.04536586459643313,487163000000
22.32736618773785,-0.08018574156006865,-0.03848055642636087,487168000000
4.732651686848195,-0.13275295466265666,-0.036359288322827775,487173000000
-5.146681884868722,-0.03388817482620242,-0.03599537392331106,487178000000
-5.677044021573993,0.08831187823519743,-0.03649961398889945,487183000000
-6.187369409302472,0.22700949275651824,-0.03661640098587027,487188000000
-6.5779222410568865,0.3115079310759645,-0.03661337449683653,487193000000
29.36968059071308,-0.5768365863302584,-0.021762981773541214,487198000000
-0.34654821849194756,0.03461890367520173,-0.01927940837281806,487203000000
-5.295025204389651,0.21905218825807657,-0.018781037978694796,487208000000
-5.831985681985332,0.2557203147853244,-0.01901938698838464,487213000000
-6.304340111738294,0.2480901572902957,-0.019371039134775527,487218000000
19.695658630596434,-0.6767198240556377,-0.007075058930366199,487223000000
2.9901740281005154,-0.01626486674670803,-0.003731324274415298,487228000000
-4.4473767975678316,0.4206211855697532,-0.0037131773898486102,487233000000
-5.700599434350427,0.38129578770936157,-0.0035772231889940865,487238000000
-6.179324237605155,0.30163711379585884,-0.00368770598172945,487243000000
19.55005250793472,-1.0423712123141904,0.007644995968964996,487248000000
-0.46229966233943254,0.23301460955047837,0.009672214399546792,487253000000
-5.412162331463735,0.5711897467930415,0.009280280345449159,487258000000
-5.945762612119959,0.3837334585718241,0.009222901227531399,487263000000
13.877243143880554,-1.063893159026157,0.01789761426583924,487268000000
2.0520655481702748,0.018815562018903442,0.02110662355447511,487273000000
-5.2380214793413415,0.6843084409613588,0.020862441080767274,487278000000
-5.808536790933641,0.4675723593511203,0.020742653848943127,487283000000
8.366971434401995,-0.8900299391365517,0.027081639671805213,487288000000
6.710116858308455,-0.19234469537769244,0.027724995447177672,487293000000
-4.915488403313716,0.633788614756736,0.027378958534716714,487298000000
-5.5131690943185765,0.42232910240965016,0.02699427545928245,487303000000
-6.041875187488451,0.20464765210826252,0.027287045855255144,487308000000
21.51591105920488,-1.4475549763077857,0.017637746583056665,487313000000
-0.9222682144474098,0.18413466481133037,0.014619392915322596,487318000000
-4.832909601664313,0.3295492731488939,0.01464813305617291,487323000000
-5.443946230616003,0.2720617782495194,0.014755586394826443,487328000000
-5.998875521328734,0.21675492915929503,0.014137957297776319,487333000000
22.42219721861408,-1.0517221249521207,0.0011110453973953902,487338000000
-0.22955036033963944,0.05740729248012779,-0.0010493268852375787,487343000000
-2.8337888598578727,0.1101158286791935,-0.0013262046356663337,487348000000
-5.090307597566412,0.15772900206377435,-0.0015366822921048027,487353000000
-5.6837209351534845,0.18508433328800789,-0.001742339595608562,487358000000
19.010561853798382,-0.5327722558791712,-0.012498962594462383,487363000000
-1.0257413041006533,0.029872742792649985,-0.013832375779479244,487368000000
-3.788433989951651,-0.06318515236304091,-0.014351018129447184,487373000000
-5.159686174213041,0.052769077652211095,-0.014247381717937609,487378000000
3.491939560144507,0.09271235145862214,-0.01897808633371639,487383000000
9.541974423278143,-0.16394403602955898,-0.025051858966997673,487388000000
-0.7044178198800358,-0.012293541289877795,-0.027042097894768597,487393000000
-3.584839281756142,-0.14320257285644739,-0.027275045085573744,487398000000
-5.071090620199542,-0.008090931610572387,-0.027120481183195013,487403000000
8.148608512713459,0.21676167320044454,-0.03348179563144622,487408000000
4.566444409144582,-0.040483530149874644,-0.03698375214872084,487413000000
-3.0139131807560307,-0.1689862741195449,-0.03757758908274973,487418000000
-4.816142211354797,-0.07799986063997844,-0.03759842546715358,487423000000
5.210805035776343,0.274080682190057,-0.03814258822132312,487428000000
5.869772569388007,0.0030939473620295727,-0.034906746335908054,487433000000
-3.222787542163326,-0.14028802720855232,-0.034462613018995156,487438000000
-4.587428125264533,0.008272633445932265,-0.03406773438291816,487443000000
0.5223125982704349,0.19710029317345845,-0.0317541931204158,487448000000
10.335130931447814,-0.011543066867956062,-0.023149440529126875,487453000000
-0.2930250992252422,0.029034132330012133,-0.020615017097238553,487458000000
-4.134601169547102,0.1386137850193187,-0.020803502818312388,487463000000
0.17943752987624492,0.030597528995524443,-0.018738988163916087,487468000000
7.05888266675276,-0.20177886332648595,-0.014193800922668389,487473000000
0.3550205094765957,0.05777482834642944,-0.01220055880965954,487478000000
0.31870125303045616,0.07390592383828143,-0.010838717964522876,487483000000
-1.489130060171528,0.18184180522052357,-0.010240105738570185,487488000000
1.413192969065188,-0.06519106370681474,-0.00855543816892341,487493000000
2.68395628759545,-0.193999051889654,-0.00688433111576611,487498000000
0.5294679611469336,0.06758704822536916,-0.005789703615158357,487503000000
0.629003419004119,0.044514456750331076,-0.005157055858359849,487508000000
0.5274658916821914,0.0523513108862257,-0.005094851440142038,487513000000
0.7650574747348702,-0.03234559692496072,-0.0050112531874730104,487518000000
0.9064212760426946,-0.06420413111744543,-0.004860809995175936,487523000000
0.795607193666534,0.020129461230430763,-0.004645553478811651,487528000000
0.7583353175737592,0.02742180735163592,-0.005094247106072819,487533000000
0.6161490718516518,0.0011405410484408539,-0.0048762254876700975,487538000000
0.5233965736892378,-0.07336559491784715,-0.005664767596730956,487543000000
1.0874293934615435,0.011098326051275406,-0.005273057656599866,487548000000
0.46615447397808923,0.019850035394832148,-0.00507126244526527,487553000000
0.6071773796086214,-0.049302800532775255,-0.004202770133803703,487558000000
0.7293014127418933,0.016823915247695054,-0.003873634289321728,487563000000
0.4326071960606664,-0.02483392128860791,-0.0036607611853926945,487568000000
0.4391157759799843,0.011102943898892565,-0.0029603697752304333,487573000000
0.7442489892139365,0.006362839666545942,-0.002613842975447855,487578000000
0.7731342811415353,-0.0006035657195493996,-0.0018254027488871947,487583000000
0.6019913589653281,-0.0040631730679490784,-0.0018272503118482162,487588000000
0.4905910558573444,-0.00881188748273931,-0.0015176033350189134,487593000000
0.5496640907223501,-0.00936671871124225,-0.001440881203818426,487598000000
0.6862482839947911,-0.008845585212073837,-0.0011510222808722328,487603000000
0.6594026674854939,-0.005002764482894685,-0.0010338799730328252,487608000000
0.5063373428443925,-0.0244999272883848,-0.0009636118495519604,487613000000
0.5082001691849726,-0.0016415707139472505,-0.0011264069991519874,487618000000
0.7571807951753524,-0.0019196682644757879,-0.0009981082479763343,487623000000
0.4535130154447551,-0.004831120593853738,-0.0011644171689182167,487628000000
0.47807594480999005,0.009190831215767213,-0.0013422238811740177,487633000000
0.7042704358487749,-0.010348148845779432,-0.0012096726722959335,487638000000
0.5913775919592636,-0.011616996950429328,-0.0016034547182909422,487643000000
0.32981879759408583,-0.001638904395210907,-0.001301927898021272,487648000000
0.617236943348629,-0.003947304646017204,-0.0018287788174788167,487653000000
0.5766961921066062,-0.007191849000562699,-0.0017902331685941174,487658000000
0.5103259636789209,0.008238756688517666,-0.0015769816571677311,487663000000
0.5447735480318654,-0.01069959638827419,-0.0015700042398473445,487668000000
0.48343574619218754,-0.024630884663625906,-0.0014977554253652369,487673000000
0.49028336817475066,-0.00413398718132989,-0.0014077075977373316,487678000000
0.5034317110291245,0.01967779633716208,-0.0009405599132753882,487683000000
0.43264786987996096,-0.02574890714624171,-0.001135950887061017,487688000000
0.47364994185204423,-0.008044455944102002,-0.001084154144090604,487693000000
0.46340328660947755,-0.014566806486767364,-0.00045428087176371324,487698000000
0.44340041755370285,-0.01450975990132283,-0.00033089542653450075,487703000000
0.44361889882378597,-0.006375353644029513,-2.1707917386477108e-05,487708000000
0.4212085520167819,-0.02160650776651725,-0.00015638432631663677,487713000000
0.39833173357299173,-0.03279059725390226,0.00011817644242691157,487718000000
0.41681228438410983,0.018486510163934402,0.0005281270160756831,487723000000
0.39737721533262504,-0.016060586805247905,-2.58190729374638e-05,487728000000
0.3877082788488058,-0.009751650402634343,0.000518649135783659,487733000000
0.393176872785325,0.020856634460826598,8.365078922735968e-05,487738000000
0.3761751556086479,0.010179516627559275,0.0003706855590371408,487743000000
0.3706277340431477,0.02165281043779848,0.00032306323758259217,487748000000
0.3769069986565312,0.016079618794411638,-6.470715070875762e-05,487753000000
0.3721886138496081,0.04290379439051062,0.00019897477720770893,487758000000
0.320435909784998,-0.010830415804579928,-3.4208056420059605e-05,487763000000
0.3452461582970427,-0.003280956847222105,-0.00023573165499521704,487768000000
0.3559220905322467,-0.03604797419803537,-0.00027365026323610263,487773000000
0.345260428359781,-0.003390409479803693,-0.00042889555428492427,487778000000
0.322764143874219,-0.003686470870136693,-0.0004331123099342655,487783000000
0.3123017653652714,-0.005278178528881558,-0.0005947911694046474,487788000000
0.30419592644635124,0.012549521849840152,-0.0005294468283709894,487793000000
0.33418801008292043,0.008562156683666555,-0.0005563781269311849,487798000000
0.3254654630794053,-0.018840219309261517,-0.0005311546338578567,487803000000
0.301419708473249,-0.03185928123617855,-0.0002661286687301539,487808000000
0.2846376503194561,0.004095174149742179,-0.0003081524787441025,487813000000
0.27761399493947125,0.015688140130379096,-0.00032528702339890386,487818000000
0.27261733056776327,0.014891436494446676,-8.993446666868881e-05,487823000000
0.2538883747968058,-0.012122035203905514,-8.46731278816176e-05,487828000000
0.22368416072456995,-0.0032885088707982186,-0.00021574895094016804,487833000000
0.2539853675776828,0.015434776435738116,-9.193945125107077e-05,487838000000
0.25175597761022006,0.0016903884961824447,0.0002434847283915891,487843000000
0.23077335262340634,0.007635553259818077,9.1994763730349e-05,487848000000
0.2211454606008534,0.005689207083225409,0.00030906721160588044,487853000000
0.22244719277351685,-0.02374053487682823,0.00036040032238592127,487858000000
0.21564386224911755,0.0035301175144868795,0.00010283382731438014,487863000000
0.1954752591616543,0.02280301370358115,0.00021879890337768868,487868000000
0.2400312054688526,0.01612413735380951,3.3336476449849755e-05,487873000000
0.21174841579714382,-0.007826446930770642,-4.5498105182847096e-05,487878000000
0.19345911166519825,0.009888641415231722,-0.000328447448671005,487883000000
0.19288831779502347,0.008169771270426677,-0.0003184822920842236,487888000000
0.15617948622895556,0.03341074961891665,-0.00014098563645182526,487893000000
0.17201805800274322,0.01569383088022462,-0.00016040181407305,487898000000
0.17421968700266163,0.012135580275217758,-0.00047012788442145294,487903000000
0.1562849025703431,0.004744490057161207,-0.00027535629127581134,487908000000
0.13287890714850917,0.02737897867297126,-8.332927944533525e-05,487913000000
0.10613011874563867,-0.011373158698042214,0.00023656914098069557,487918000000
0.10072071883022622,-0.004983366170722724,0.00016868414907175974,487923000000
0.08684211148718443,-0.005219808921928014,-0.00015569283618224332,487928000000
0.14285547530709947,0.015980382446944573,-0.0001296904307396283,487933000000
0.09318399797250879,0.020857230772175096,0.0005223733001126082,487938000000
0.10151926230680858,-0.013495550814542956,-0.00022374269574640472,487943000000
0.0635298141815138,0.0051329476365605175,2.1165834128979194e-05,487948000000
0.09759352908589876,0.012630403815399836,0.00020409791219071596,487953000000
0.09688779371321045,0.0191044756186732,0.00030465920658962137,487958000000
0.050767545388602175,0.014171051056500825,0.0002571299015199207,487963000000
0.055383317718599945,-0.00114439154825355,0.0005524562841427571,487968000000
0.020017186174297985,0.019337212820494686,-0.0002608793005899589,487973000000
0.04169353159012233,0.02286554641793058,0.00035025298771273604,487978000000
0.04547054600298359,-0.018607286440784937,0.00029989140974103146,487983000000
-0.0002755575735725359,0.031894893423396464,-0.00021530753154512335,487988000000
0.021962626956131694,0.004414874471715722,-0.0002383927537211295,487993000000
0.008741790730769985,0.009260702536791794,6.228321432053782e-05,487998000000
0.02364797571375235,-0.02192508463739619,-0.00022350124008108346,488003000000
-0.014818483172694774,0.02175966281714553,9.719308561362497e-05,488008000000
0.021363530547948664,0.008757034376606989,0.00014594224235227663,488013000000
-0.03923124780091593,0.005645172151080552,0.00019754101100082986,488018000000
-0.015240003155713234,0.007641940429810733,-5.3876660009848834e-05,488023000000
-0.01984829474484644,0.009384192424007261,1.1802766689133221e-05,488028000000
-0.030161139800585345,-0.0017323419157619716,8.31103490312948e-05,488033000000
-0.03682783997698183,0.031316944592648596,-0.0002488900754404779,488038000000
-0.0928085406073509,0.015413752168001511,0.00023649957586358765,488043000000
-0.0385918822946648,0.030518596102577993,-0.00010832946561705657,488048000000
-0.07672644486029778,-0.0028903565507423547,-0.000114157305650391,488053000000
-0.04773552887100506,0.04099530040862382,0.00023529501658323902,488058000000
-0.08100551813663362,0.026466131775214688,-3.378300338864352e-05,488063000000
-0.09104747602828728,-0.013887666209779381,0.0002904533575180528,488068000000
-0.0857512268359466,-0.007614936986027146,-0.00027513170053118056,488073000000
-0.1228452349191929,0.04635790241824548,-3.16305153012804e-05,488078000000
-0.14918540749785517,0.0290445309993282,1.3630796918709723e-05,488083000000
-0.1165544594087866,0.030287150376925823,0.00021729703995090473,488088000000
-0.1420612063481382,0.02783055834702949,0.000391182485178927,488093000000
-0.14205628697527053,-0.0065649802817622435,7.47956827100283e-05,488098000000
-0.11012031613345688,0.039345121888144464,-4.157834464786458e-05,488103000000
-0.15619937948567145,0.03371276862024705,-2.7318439099611772e-05,488108000000
-0.1445599524596126,0.0073315618448858404,0.00012836280969801288,488113000000
-0.179180951218793,0.018068486879875716,-2.477058354204614e-05,488118000000
-0.17374645342915757,0.042409769554405626,0.0002600489314995798,488123000000
-0.15872123918464803,0.000949264169692432,0.00016980652255045697,488128000000
-0.18035851085406554,0.026027050011251295,6.824164548100004e-05,488133000000
-0.20729303644175465,-0.012457433457714648,-3.208435943149067e-05,488138000000
-0.18970309846235486,0.029005211714436853,-6.944519167775807e-05,488143000000
-0.219325363216333,0.029469367989265215,-0.00033701312023689135,488148000000
-0.2230663258167687,0.023823535524068705,0.00020123629822430716,488153000000
-0.22586205390996938,0.053443087551095655,-0.00012889739986690548,488158000000
-0.2391625511825217,0.0036731398983557914,0.0003973107761330372,488163000000
-0.25902936322393905,0.028636545444696865,0.00020744565993098085,488168000000
-0.22864827218392447,0.015440801022862301,0.00019805396741509815,488173000000
-0.26245302882487687,0.00912837086041848,0.00036509186189880266,488178000000
-0.265279172774024,0.0068191651501629015,0.0004035710315591662,488183000000
-0.28097807262898233,0.008492571080251048,-2.998148806496809e-05,488188000000
-0.28176609254017027,0.022511951058487953,-3.190827910834514e-05,488193000000
-0.27845935781145054,0.029535792008254774,5.413414471379311e-05,488198000000
-0.2899162157586689,0.05019493530106797,-7.340180941659463e-05,488203000000
-0.2920917369883924,0.011564958933432356,0.00012001119876265073,488208000000
-0.3006955291989571,0.042406008131754484,0.0005348656836767635,488213000000
-0.2745001181430842,0.014997409863946199,-0.00031480573155790435,488218000000
-0.27729038922666926,0.016355810840813115,0.00020019164803549615,488223000000
-0.3141982387375822,0.00240257930302943,0.0003365344755757097,488228000000
-0.32294781855593935,-0.004061397364902318,0.00026682672313677654,488233000000
-0.32496740677811226,0.033924707524140514,0.00011439914973579043,488238000000
-0.35305421099685047,0.0033641848506819356,0.000142340659414236,488243000000
-0.3450177131097154,0.027832221337349174,0.0004188361159421037,488248000000
-0.36658851458368746,0.030478636026349426,0.0004166551582593167,488253000000
-0.3170784334076156,0.011733804182529124,0.00027681732019343525,488258000000
-0.3156765862711213,0.021147577077848454,0.000249729861478914,488263000000
-0.36007324036033056,0.014990638531364639,-5.7608277953016216e-05,488268000000
-0.376417939930929,0.011930326287373455,0.0005806128314944915,488273000000
-0.37056273418610525,0.01422789278803871,0.00046403298025483647,488278000000
-0.378546281179966,0.000510495386135297,0.0002649580777795428,488283000000
-0.3905643615616068,0.04980272997299533,0.00020356392135794827,488288000000
-0.3642552795234884,0.031924019934817374,0.00033483987093117426,488293000000
-0.38937067187491503,0.010833921971349338,0.00030076176553861305,488298000000
-0.4008143383116064,0.039515206988778286,0.00023634140639469998,488303000000
-0.39608655364809997,0.007666474062989178,4.766126879398944e-05,488308000000
-0.42194031243391156,0.010174890479131119,-0.00019938832216687033,488313000000
-0.40390446394141044,0.008893347542526216,0.0001213930642139956,488318000000
-0.4365902331030405,0.014708804951797166,0.00031308805610201636,488323000000
-0.4331554764249603,0.010570803546734998,9.05677615159175e-05,488328000000
-0.4535277239733198,0.004075334712757436,-2.359170043651914e-05,488333000000
-0.43834186372249373,0.02350307128227614,0.0001496786720875611,488338000000
-0.4713389264007584,0.025980120488462995,0.00010297673110495006,488343000000
-0.4447957847589059,0.018945035038476866,4.9521204515049877e-05,488348000000
-0.47972614271075087,-0.008127358055557254,0.0001392227347093853,488353000000
-0.48169904635130295,0.011402976677696415,3.660139390558687e-05,488358000000
-0.513371368165606,-0.012351660344647814,0.00024334069166922578,488363000000
-0.4822730710860689,0.007767231226322183,-2.063036678187573e-05,488368000000
-0.49156399559978137,0.036936270166556,0.0002974746894935358,488373000000
-0.4922314144969309,-0.004686301252619988,-2.7236974924167392e-05,488378000000
-0.4909093246456299,0.020313479171543934,0.00019884233982136996,488383000000
-0.49415719934004637,0.03158073126881382,9.782283330787389e-05,488388000000
-0.516002112667206,0.03820600101868056,0.00025766706981645627,488393000000
-0.5402329679596187,-0.0028959753609167534,0.00020933668656064586,488398000000
-0.5166975368946952,0.00465009784929794,0.0004159335022470669,488403000000
-0.5485818216047831,0.006777667012889578,0.000291552486900769,488408000000
-0.5813596630553467,0.01566831560930587,0.0005419693299046336,488413000000
-0.5694019446725809,0.027773145902319885,0.0001857519204727609,488418000000
-0.5528749198769223,0.014461136830998037,2.089574729206148e-05,488423000000
-0.5818247515267433,0.0302373255467143,0.00040180320453661557,488428000000
-0.5757885019361205,0.005128987090630701,8.924191814680759e-05,488433000000
-0.5895772920969409,0.015823057655957797,5.4574439121542876e-05,488438000000
-0.5844595526340259,-0.009788474145669274,0.0007763206272875012,488443000000
-0.5618846999580562,0.04543573944126879,9.607433769804535e-05,488448000000
-0.6042169651740562,0.030129874449980235,5.531107619150035e-05,488453000000
-0.5989853771155418,-0.018437701957677372,1.814284658216333e-05,488458000000
-0.5914851917395824,0.03405919835942292,0.0002758223480051313,488463000000
-0.5812296265016805,0.022054568494323513,0.00023827932899557854,488468000000
-0.5846387043533982,0.010122807948462306,-8.563432432478907e-05,488473000000
-0.6231383012390096,0.021679952159090438,0.0002965469217758661,488478000000
-0.603343981051024,0.024888357978444478,-0.0002874117749327894,488483000000
-0.6544632352265186,0.04688252433265279,0.00012399260147155874,488488000000
-0.6557571148192779,-0.009888629993628193,-8.417642561569933e-05,488493000000
-0.6287497163050845,0.008999903717850685,0.0001651613454074673,488498000000
-0.6231093946765522,0.0074616620915506065,1.96079277374065e-05,488503000000
-0.646098551466495,-0.007224397361127059,-5.5436981191867734e-05,488508000000
-0.6408079325969421,0.0031155852955411165,-6.813865160244393e-05,488513000000
-0.6478952955642507,0.0033551290199195227,-2.9077846386789776e-05,488518000000
-0.6691192272112476,0.034559578262758905,0.0003988674864005994,488523000000
-0.6442324660187575,0.03902166817447435,9.195193022753693e-05,488528000000
-0.6577823482911346,0.030368778961029415,0.0003129754013797831,488533000000
-0.6801072318196296,0.03300028008408451,0.00029010701480061067,488538000000
-0.6563924169275916,-5.562549265492045e-05,0.00017914068389386975,488543000000
-0.6515691974615576,0.016428274047789484,-0.00010351648223604458,488548000000
-0.7104820112803363,0.001650351131868212,0.00020955067370874173,488553000000
-0.6998481979943573,0.0066468031142021475,0.0001616049668646448,488558000000
-0.7017718994698087,0.03825666174693655,0.0005596988622164455,488563000000
-0.7122936934370139,0.011876280987871184,0.00012662057262986023,488568000000
-0.7330003760715146,0.03739248877253566,0.00015825606586711204,488573000000
-0.7205436596746099,0.004297082323330589,0.00024486011094076516,488578000000
-0.715434827580137,-0.021916781758758545,0.00044552584625260694,488583000000
-0.7123784809088116,0.030085158088966363,7.170488866454597e-05,488588000000
-0.7172283555341525,0.007274764446740753,-7.596262468084324e-05,488593000000
-0.7555966740351581,0.016386768516340664,0.00028504806948168276,488598000000
-0.7434807227756196,0.014665372901049092,0.0002483798603557987,488603000000
-0.7641474027882236,0.009768884991775561,0.00014124494276692259,488608000000
-0.7631523923514417,0.020617642300408065,-0.00017849558903166858,488613000000
-0.7391485184245237,0.022679664960887594,4.0152371064790715e-05,488618000000
-0.7631678283057621,0.04072852393787514,0.0006329224181722932,488623000000
-0.7550271632605198,0.015331737355681722,-7.128750900732436e-05,488628000000
-0.7653079166304281,0.023152715813616907,0.00020951395375052825,488633000000
-0.7685672747831223,0.03974138007592019,0.00027426986302683397,488638000000
-0.7656317124667313,0.02027277312708521,-1.3810646829859834e-05,488643000000
-0.7836841216798488,-0.009538546922811818,5.554130847048448e-05,488648000000
-0.7740936432292476,0.016054116681734378,-7.008970735301179e-05,488653000000
-0.7733864278185358,0.0259838750855709,0.00016343846509314405,488658000000
-0.7908654965465111,-0.0036362183776395933,0.0002950963151742796,488663000000
-0.7886382855679052,0.03465394782690674,0.0005425696716680421,488668000000
-0.8168837669823985,0.03545836941739105,1.26113031069278e-05,488673000000
-0.83104278236242,0.02305957885312264,5.6329072598711e-05,488678000000
-0.8120644103595109,0.0017539923086557704,7.696983305863075e-05,488683000000
-0.8287281174628086,0.015119652157010144,3.439630048781906e-05,488688000000
-0.8217697599642696,0.04387904863317628,-5.413799549764913e-05,488693000000
-0.8116837221830362,0.019189974399462094,7.187020748712351e-05,488698000000
-0.8435171036068365,0.0061335602319666695,0.00025890225545762433,488703000000
-0.7986020687891131,0.019283766324314597,7.043208380922401e-05,488708000000
-0.8466830662634434,0.018045523902563705,-0.00023769095253697465,488713000000
-0.8355405571555019,0.013863959999427166,3.8760434422246834e-05,488718000000
-0.8335039444413684,0.013222592940981,0.00020725058723040072,488723000000
-0.8402819281498259,0.03607519307323408,-0.00029678586075395264,488728000000
-0.8232753121911602,0.000288613080488543,5.945874319265444e-05,488733000000
-0.8571375224883171,0.02411801216820409,7.00733331057617e-06,488738000000
-0.8563384390963582,0.01869364173901864,9.423845417884282e-05,488743000000
-0.8509551922069496,-0.0024614163021365078,0.00014161366926714416,488748000000
-0.8595625318633792,0.03295047126833947,0.00016255976479260154,488753000000
-0.8864731237043592,0.0052906766412428256,-0.00011324252470790725,488758000000
-0.88254561629814,0.05644946561392848,0.0004495636004510524,488763000000
-0.8950252837496322,0.03890031696429768,-5.120826041783954e-05,488768000000
-0.8844046249093905,0.04766524273931676,2.1588735411186914e-05,488773000000
-0.9084917463365154,0.010515472434904884,0.00032940453009872787,488778000000
-0.9105499996262867,0.02509714220178915,0.00015836309277273447,488783000000
-0.8829353576006315,0.03363380531290783,0.00023712598016942176,488788000000
-0.8982764223863585,0.005251765143818053,-0.00017962496209932954,488793000000
-0.9106820419817726,0.03318760597387148,-3.659514043563266e-05,488798000000
-0.907658451296092,0.03522472463940942,0.00026346747499353824,488803000000
-0.9088619211437821,0.03077326877008215,0.0002594175909087102,488808000000
-0.9290302248631358,0.01398314028636264,0.00031906287092745234,488813000000
-0.8932302268459783,0.03172993308795262,0.0002669007520874055,488818000000
-0.9175714789364434,0.010571543513986393,0.00017407488227839328,488823000000
-0.9481321062862184,-0.017424459915824433,0.0001175491069076849,488828000000
-0.9009958439654782,0.019407002668035692,-0.00025528166602534577,488833000000
-0.9503808240795936,0.0257515342821521,0.0002566492091840651,488838000000
-0.9334476571456775,0.0338374949853729,-2.0153618944936002e-05,488843000000
-0.9255788631816927,0.049949179340546206,-0.00014517547653922303,488848000000
-0.9220989490448539,0.046432028684932805,-0.00011401572113348712,488853000000
-0.9501983473626775,0.024950964208937207,0.0003238246219073569,488858000000
-0.944781354384857,0.03381619909131804,8.378697957112234e-05,488863000000
-0.9575651624178554,0.051708815669504124,0.00011311168829160502,488868000000
-0.9421790677862831,0.001967785996634313,-2.9621836164996407e-05,488873000000
-0.9484740578161436,0.000517939875253455,0.00013602488762337633,488878000000
-0.9813735307764901,0.0100586160858025,0.00019593459881106864,488883000000
-0.9558840987290105,0.0024944378083684438,-7.877036577286808e-05,488888000000
-0.9518840830578714,0.043476822675894186,-1.2876912808804119e-05,488893000000
-0.9655604511216312,0.007909310891753951,-5.5411712373843456e-05,488898000000
-0.9595894469489991,0.019176942343052734,8.357068469214955e-05,488903000000
-0.9735450742111837,-0.023488659365409233,-0.0001476255984014772,488908000000
-0.9517175852454148,0.031997605273936684,3.4388044553792306e-05,488913000000
-1.0104128729549011,0.04176855507754693,-4.842644812185752e-05,488918000000
-0.980236222756655,0.019324296279443775,0.00018091172675758447,488923000000
-1.0312210169615494,-0.009918804824219956,-0.00033150297911396516,488928000000
-0.9913555977976632,0.027024344279084546,3.424403349011949e-05,488933000000
-0.9919240813616089,0.01852026032720066,-8.826348624849331e-05,488938000000
-0.9946135150593299,0.02273041281182321,0.000322700387163612,488943000000
-1.0066218282655435,0.026480628271316524,0.0001744730052556866,488948000000
-1.017382368608358,0.020635254179205503,0.00016342389724721142,488953000000
-0.9880244081826037,0.024869827546966018,8.752764506889658e-05,488958000000
-0.9891918472525482,0.015251969083629715,-0.0002226276715166416,488963000000
-1.0066657823355991,0.021320225464181896,0.00012507752214864607,488968000000
-1.0154836690755649,0.05139318200968903,0.00023715013400371046,488973000000
-1.0055959138849035,0.019242978757066303,-6.395274979323888e-05,488978000000
-1.015776306149299,0.029460131056821846,-9.893791323076571e-05,488983000000
-1.0222863944002127,-0.012128016076797733,-0.0003588451666190132,488988000000
-1.0181912665930957,-0.0013720375648333082,0.0002637939137704814,488993000000
-1.014932393243593,-0.0022231292403215135,-0.00015534934055549607,488998000000
-0.9951795402578179,0.02577080221953386,0.00025767430007982823,489003000000
-1.0524452189059115,0.021843047029275232,-0.00010227166572801175,489008000000
-1.0259359893073903,0.030198648804311994,3.972956567384258e-06,489013000000
-1.0285792716742597,0.007569989172184002,8.04299253875766e-05,489018000000
-1.0611909301510039,-0.011496855009605428,-2.8958265026354713e-05,489023000000
-1.0349780464905696,0.023167726077998232,-4.852036969200867e-06,489028000000
-1.0268452195374664,0.015271864717013335,0.00024939243252692083,489033000000
-1.0663222615072403,0.009251887579677875,-5.2870521349661074e-05,489038000000
-1.0591090611061935,0.03100889618414837,8.034718256701284e-05,489043000000
-1.0718878314302607,0.011998272565324705,-0.0002571716168994471,489048000000
-1.0710566802149393,0.01671045448472282,-1.8396163310176286e-06,489053000000
-1.0746312882964317,0.017841163996687556,0.0002539320529016208,489058000000
-1.057327505976265,0.012477679609302184,4.63006738124024e-05,489063000000
-1.069064478055847,0.0340596546470538,0.00018086014131151227,489068000000
-1.0757868605958116,0.03171894138334085,-0.0004730031377264091,489073000000
-1.0825599619329405,0.025987692070781145,-0.00022023685961815656,489078000000
-1.0700360123553356,0.01951742924327353,-0.00018105520714753302,489083000000
-1.055369560301385,0.015529794558529245,0.00023069363212123597,489088000000
-1.0927497473098295,0.0460274455528217,0.00012427986678068117,489093000000
-1.0421362625225665,0.024757346224402798,3.92384981137974e-06,489098000000
-1.0629145386698822,0.024851762446803257,-0.00013229124824084128,489103000000
-1.0927668983457632,-0.016310304545940877,0.00011850936296770028,489108000000
-1.095331469122778,0.05640718133287582,8.507633341187448e-05,489113000000
-1.061705447402426,0.0035640954037920516,1.840953001777546e-05,489118000000
-1.0966860922638646,0.04933692118791916,8.529291057961477e-05,489123000000
-1.0883025383902234,0.02205267893991493,0.00018732918962471423,489128000000
-1.1240634076421379,0.024375609389786557,0.00010613739581033662,489133000000
-1.085691801197929,0.03234409325228073,-0.000563189014565967,489138000000
-1.0610301718437178,0.02247757399467856,-0.00016603094741435883,489143000000
-1.0983725068783508,0.04735148674880228,-0.0002029780346507241,489148000000
-1.0984805988692308,0.039155673071801296,1.7548071248999155e-05,489153000000
-1.081129699347823,0.018134073405089154,5.170832845177098e-05,489158000000
-1.1101204935892968,0.0331622239427641,4.1046497397212085e-06,489163000000
-1.102605968184296,-0.0034581408148588785,-0.0002452299317855339,489168000000
-1.1015159507496024,0.012226979995820182,0.00021536240339675817,489173000000
-1.0899431987601589,-0.003333460685826484,7.805325083994118e-05,489178000000
-1.112785652106646,0.005591456570086294,6.495778899896213e-05,489183000000
-1.1014922976027428,0.011071252132918895,-0.00019757988812906918,489188000000
-1.0859282557383318,0.010902229439501436,-4.197232233526789e-06,489193000000
-1.1698170399166092,0.013126618889491121,-0.00017968150922397581,489198000000
-1.1410907541151933,0.015129499723217268,-0.000182064789817109,489203000000
-1.1462199611296218,0.0234086378891483,3.680317585494624e-05,489208000000
-1.124711927454626,0.032095621041032335,0.0003257584655657871,489213000000
-1.130086295068279,0.06513628552910088,-2.654477546765483e-05,489218000000
-1.0999406084028391,0.0168353489280598,4.017025840202276e-05,489223000000
-1.118761422241091,0.025847367844779333,-5.22276809225359e-05,489228000000
-1.1300204518459427,0.00402327610608034,0.00028877972352432993,489233000000
-1.1065372554644421,0.01712771628046771,-0.0002476723268623215,489238000000
-1.117675937275448,0.0489663435975253,-0.0004458379499127259,489243000000
-1.101832146195,0.014517218885593082,-0.0004477281476764274,489248000000
-1.1281190680920195,0.028381508040723206,-2.362046474637391e-05,489253000000
-1.144986402573155,0.028591538764437596,8.032776618063118e-05,489258000000
-1.146229383212026,0.012978560953798577,-5.730428504326749e-06,489263000000
-1.161843436598745,0.027889541308360816,-0.0001657589242345402,489268000000
-1.1321952736704497,0.009180448872036399,0.0001322834688021208,489273000000
-1.1278410959263434,0.03638323297527009,0.00011323915520616062,489278000000
-1.1328087350238056,-0.0020681925235115153,0.00011766943031761452,489283000000
-1.1434498814363874,0.04217730012649098,-0.0005759159961634896,489288000000
-1.1591323053128222,0.008671624361998045,-6.096078356516245e-05,489293000000
-1.135819098587747,0.01937272302826546,-0.0005493027807182333,489298000000
-1.1516085342324782,0.018691483642976743,-5.024607352004639e-05,489303000000
-1.1633692033955305,0.0012683394274191628,0.00023711044902703933,489308000000
-1.1562240916859374,0.019174284673166193,-0.00020270576444391606,489313000000
-1.1561625113128553,-0.0004313454763789394,-0.00032249544601312423,489318000000
-1.1589281731738208,0.00228823545014018,9.920190394772539e-06,489323000000
-1.1750142067358664,0.025806877317832162,-0.00036996937541813066,489328000000
-1.1862081339379507,0.0004815668541391857,4.9038640810882575e-05,489333000000
-1.1508970805678778,0.010970185356389599,-0.00022966273826402253,489338000000
-1.1535849181745141,-0.003489989454834308,-4.065569539499414e-05,489343000000
-1.1628304288700102,0.007194772465907121,-0.00021864376446880705,489348000000
-1.1720254363954294,0.03585351049230794,-8.627721210568549e-05,489353000000
-1.1630413928599017,0.02417085384352311,-0.00010193851552726362,489358000000
-1.1790073999741568,-0.0006481152979466998,-0.00020022532731771932,489363000000
-1.179644346218743,-0.0003723019219874779,3.8953251099861245e-05,489368000000
-1.1438617786447038,0.022501392997186394,-9.609197504210978e-05,489373000000
-1.1516250335728506,0.0024620492020437576,-0.00026493491163080826,489378000000
-1.1644299670351994,-0.0023656759137394776,-9.321091137521295e-05,489383000000
-1.17471520481436,0.020265030883823414,-0.00022622251757310389,489388000000
-1.1709868963976764,0.02395588716366483,-0.00037261747275736624,489393000000
-1.1331718401892976,0.04433387120028717,0.0002290623530047783,489398000000
-1.1372146623890094,-0.012967062496278922,-6.135647081485971e-05,489403000000
-1.1704329444104025,0.056065619447689154,-3.811009237039578e-05,489408000000
-1.1276166545407853,-0.006762240068858215,-0.0001285555440946849,489413000000
-1.1632535921978024,0.024123285332670774,-0.00023436005918040577,489418000000
-1.1701513849868568,0.019985439576056696,-7.353710395993475e-05,489423000000
-1.1733786559417687,0.04248203564737715,-7.636354922799754e-05,489428000000
-1.1745500606236194,0.04714336907093156,4.574243396164614e-05,489433000000
-1.144201240754303,-0.02703674891194903,0.00019366255368498994,489438000000
-1.1788061052383898,-0.006209938951116406,-0.00011130945005689842,489443000000
-1.1856596938111112,0.018843982356330856,2.202104896295426e-05,489448000000
-1.1794987010441085,-0.017554922994122438,-0.0005701197553299611,489453000000
-1.1902880892687437,0.02836517666122449,1.722577990351995e-05,489458000000
-1.1886650985369376,0.009614467944510012,-0.00021672625344021463,489463000000
-1.1751521247222982,-0.010538419026476325,2.8212694130950025e-05,489468000000
-1.1830544201215085,0.006012276583993218,-0.0003267770886334456,489473000000
-1.158260242110307,0.008502303530200251,0.00010485280650590952,489478000000
-1.1853092559342293,0.00537826922550102,-0.00020463226576414634,489483000000
-1.1791570501027295,0.006572971248498118,-0.00020360422907388784,489488000000
-1.188680115895635,0.011822832765675714,-0.00019080352995327736,489493000000
-1.168162627507635,0.00952308432238637,-0.0002181870925373628,489498000000
-1.1567596672904203,0.015440365451999397,-0.00022460705111432521,489503000000
-1.1650669214418474,0.026268704520864862,-0.0002740791302333199,489508000000
-1.1916532639471407,0.008752435233704064,0.00017190042954609054,489513000000
-1.19050160291891,0.0070529845438504855,2.2366639573512812e-05,489518000000
-1.1384959798146552,0.00249182890121351,-8.638864412242598e-05,489523000000
-1.1516704841108225,0.02653482233736592,-4.738483418822962e-05,489528000000
-1.1909593238907135,0.001839401072844641,-0.00011469097168755057,489533000000
-1.191104450706146,0.022627736471506593,-2.3578267439126106e-05,489538000000
-1.138432294436658,-0.008198008710524864,-0.0001727408200874303,489543000000
-1.184289668999057,0.022087736399725125,5.053310457119762e-05,489548000000
-1.1796283105686556,-0.006150210594466384,-0.00026795410479046476,489553000000
-1.1790170125774513,-0.022430350873395545,0.00019699402911102075,489558000000
-1.1757544399267064,0.012714337499374747,-0.0002458133468351806,489563000000
-1.1787429016066786,-0.008408401883675719,-0.0005142226177220028,489568000000
-1.1948095220386519,0.017099786510859104,-0.00019913715062817543,489573000000
-1.1416420210409737,0.02574947822503128,-0.0003567649723011108,489578000000
-1.1766034659127724,-0.0012206227080750406,-0.00020214763095050431,489583000000
-1.1958636776387015,-0.0014189630597919185,-3.9931574492291054e-05,489588000000
-1.182911288124835,0.016562686905710645,0.00041370798333208956,489593000000
-1.1706640763613048,0.02494197710221121,-0.000299371478577639,489598000000
-1.1468120335650869,0.009152202218695284,-4.3832507209171835e-05,489603000000
-1.1952285189212233,-0.0060754828172539365,5.307997714400548e-05,489608000000
-1.169067410993277,-0.020750370202557232,0.0002750314234754142,489613000000
-1.1772692822697997,0.00374039488215538,-2.3681886834061887e-05,489618000000
-1.1739232191302658,-0.01855097416986435,4.543753738360016e-05,489623000000
-1.1376456055886195,0.024191933317021255,-6.585744766053873e-05,489628000000
-1.1819208475402507,0.03586931422061944,-0.0001632110014741282,489633000000
-1.1835519866815747,0.012363295950836007,0.0003523936384717731,489638000000
-1.142147830876504,0.019247869124648716,0.00018987688319362385,489643000000
-1.189879377598586,0.022513798144656948,-1.8881768332826152e-06,489648000000
-1.1670030324841223,-0.003426139306556465,-0.0002873039517425788,489653000000
-1.1508186327190528,0.014928429571664866,0.00010878068279775357,489658000000
-1.1673873793807255,-0.006662950812449549,0.00014633109065490123,489663000000
-1.1661171490312416,-0.004173923515721716,0.0001708816195363177,489668000000
-1.1696551970598137,0.017399803269933883,6.282145061504226e-05,489673000000
-1.1639624646363351,-0.013179236214595859,-0.0002738125527367108,489678000000
-1.2095970405391858,0.03386447096706802,-3.496505952561113e-05,489683000000
-1.1102278301095447,0.00839123408879643,3.0203680063206942e-05,489688000000
-1.1981064707435425,0.023232088552416104,-0.00010595764022250423,489693000000
-1.1534411251487156,-0.007272498739205774,-0.00021823337510011215,489698000000
-1.1850103805383967,-0.011338664414237153,-0.0004502383841355413,489703000000
-1.1810019895701882,0.014756904145909588,2.6074333475849265e-05,489708000000
-1.1745022448108364,0.01341715200629979,-0.00015586810200098863,489713000000
-1.1974621580399278,0.017513160094494558,-1.2531890639825406e-05,489718000000
-1.1633898549311272,0.005013687672259634,-0.000276743028212619,489723000000
-1.1595031605279862,0.007921497198197553,0.00011786454552992567,489728000000
-1.1594790054105268,0.004033626404103267,0.00014898052696966704,489733000000
-1.1415178019527854,0.0062403105791880445,0.00025495043627015064,489738000000
-1.1868472901470157,-0.003735136154912037,-0.0001338495448865197,489743000000
-1.1601959676642366,0.0035634869866174993,0.00014951914568962307,489748000000
-1.1724628728125275,0.0026748640190125805,-0.00023883091338432004,489753000000
-1.181420673182076,0.027805644437406685,3.186591300212603e-05,489758000000
-1.1487598213778023,-0.03746960013088187,-0.0001931483600192408,489763000000
-1.1457402459996078,-0.006462076664882534,-0.00031205050720147366,489768000000
-1.1715468556421926,-0.002602492610809945,8.019067854248625e-05,489773000000
-1.1413589243478033,0.011298466011095265,-0.000413049014798025,489778000000
-1.1876514569906251,0.009623328498825934,-0.00011811982582672062,489783000000
-1.1413723624633625,0.011385560261377105,0.00041514201932942377,489788000000
-1.165647357715844,-0.008412012079008827,-0.00025850103403384677,489793000000
-1.1084010398714372,0.01269579309903345,-6.98833392646059e-05,489798000000
-1.1283413936761155,-0.01201056748000248,3.5298612420949145e-05,489803000000
-1.1679921131466637,0.011652044387856667,-0.00022284136309386223,489808000000
-1.145632369582325,0.03741738654626767,-2.040646464661387e-05,489813000000
-1.1255094651860962,-0.01622667154252616,0.00018451692088879802,489818000000
-1.1046383515402238,0.020147282058363154,0.0002121274970588601,489823000000
-1.1486707550574082,-0.0027538814198441045,-8.314506157936787e-05,489828000000
-1.1615693409438554,0.0017502942729317782,-7.265703916102791e-05,489833000000
-1.1232898066281556,-0.005870781562795445,1.4220105277194442e-05,489838000000
-1.1170523508355963,0.0028956478344843678,-9.707532438231134e-05,489843000000
-1.1380759373225393,0.007007423098440652,-0.00026228409531752216,489848000000
-1.147144953886239,0.02900230073036633,-5.088348346720138e-05,489853000000
-1.0881338523579416,-0.003961404133565971,-3.567244816321062e-05,489858000000
-1.157078105144481,0.005358630247916767,0.00012286481751776156,489863000000
-1.1176496550573383,-0.02095471009631094,-0.0004958354979942133,489868000000
-1.1550418925154189,-9.627621219713851e-05,-8.558884261703605e-05,489873000000
-1.1361682555497008,0.004293684095148483,-2.20300370952781e-05,489878000000
-1.1353079174992442,0.01858151810955784,-9.410831091489387e-05,489883000000
-1.119399958034012,-0.03503604950320319,3.6129182230629382e-06,489888000000
-1.1237268027251412,-0.005707103381882839,0.00010940617670229872,489893000000
-1.09257979801254,0.011824305471787908,0.00021249126289725467,489898000000
-1.1346889268377462,0.02932090984492124,0.00016647540338324233,489903000000
-1.1199046922492146,0.005172777278555849,-0.0002836086185718694,489908000000
-1.1061535765782506,-0.03460773495034156,-0.00017378613355271884,489913000000
-1.1183891706843097,-0.020547947638060948,-9.501672002342851e-05,489918000000
-1.12358945325131,0.0073745371663628285,-1.246068941255306e-05,489923000000
-1.1186404814786106,0.015578317036128188,-0.0002026247293033411,489928000000
-1.1029017078168928,0.007139421352609504,6.72654345333295e-05,489933000000
-1.0812314669194398,0.0249666665467541,9.654186578803622e-06,489938000000
-1.127670110862124,-0.006142753503433949,-3.280405383822122e-05,489943000000
-1.1230819809340806,0.015222003363844012,0.00023475187821664803,489948000000
-1.0703500491402027,-0.008473496503032835,1.432060283901315e-05,489953000000
-1.1017241088915637,-0.037634408199250444,-0.00014206120436940483,489958000000
-1.1135472597734526,0.006759818254297365,8.693679171395676e-05,489963000000
-1.104399127574451,-0.001223485424214345,5.868801856867908e-05,489968000000
-1.0792925325936016,-0.022115439281588236,-9.563007889616551e-05,489973000000
-1.0917548821669858,0.010095852870577493,0.0002451317830606,489978000000
-1.0638304696059002,0.010073794304746489,0.0003776140716135021,489983000000
-1.1091097679461412,0.02643078439044581,-0.00024943674487277307,489988000000
-1.0914921749900035,0.019781987562483786,0.00021137364482653678,489993000000
-1.0763044944278886,0.0148624891645132,-2.1164823820888192e-05,489998000000
-1.0909019373879612,0.02092075480726724,9.625712487440469e-06,490003000000
-1.0772629855436575,-0.009482912059603128,-3.1198370052859945e-05,490008000000
-1.1057616723489598,0.0026803331187500146,-0.00014880216792467616,490013000000
-1.0748555295939655,0.030050070802383103,-0.0002653125206730757,490018000000
-1.0931960333935344,0.007066497660776119,-5.1862628352839316e-05,490023000000
-1.072796677208745,0.012774648109271279,0.00011146139346533983,490028000000
-1.0685874316038628,0.021729748166962395,-0.00019972313700592566,490033000000
-1.0759756541446401,0.00890811039684082,1.7036159605292637e-05,490038000000
-1.090105443302868,0.005306194756102034,-0.00019007863841124416,490043000000
-1.0737271870874312,-0.02953133088174386,-6.411285353845632e-05,490048000000
-1.0560907910967068,-0.026746537785859538,-0.00043339124885326936,490053000000
-1.036432738408826,0.013339031935743465,-0.00022083781680628086,490058000000
-1.0486264409759503,-0.026868325139011225,-0.00025364086815556856,490063000000
-1.043124369011922,0.014079482101095504,-5.285341842584322e-05,490068000000
-1.060991790579554,-0.015720477186482253,-0.00021647491367848574,490073000000
-1.0185705061290322,0.010233005875697001,-0.00021132986307724531,490078000000
-1.0621407932358868,0.022396297289130937,-0.00015576551160735371,490083000000
-1.0519038382061567,0.015885650012938936,-7.044985830162043e-05,490088000000
-1.0282075284028243,-0.029428559885147015,-2.726964821076525e-05,490093000000
-1.034736971471733,0.009618375527553409,-0.00028956971004102613,490098000000
-1.0461228713557955,0.038772262827910436,-0.0002155410990617667,490103000000
-1.0509774357241182,-0.009547108038081932,3.705792694381813e-05,490108000000
-1.0294230994263673,0.019380786623484848,-0.00012657272574785413,490113000000
-1.028503235053005,0.02484258414322026,0.0002695425407315116,490118000000
-1.0230181684552468,0.016458973140333885,-0.00022331138707833555,490123000000
-1.0152660792685415,0.012114999163978884,-5.666287149540617e-05,490128000000
-1.0018181786969138,0.005796044894348346,2.4723155361764307e-06,490133000000
-1.0161609494653592,0.015632377385213593,-0.0002091545803835598,490138000000
-1.028230650877896,-0.014701661243839282,0.00012200391129774755,490143000000
-1.024323958854563,-0.007639937793229244,4.550693158529131e-05,490148000000
-1.0211719500208862,-0.03144708282618531,-5.507470525824067e-05,490153000000
-0.9982825619174357,-0.002407183857178749,-0.0003018636191021545,490158000000
-1.0133402788665926,0.020406596028988123,-0.0002902187013964541,490163000000
-0.9994408850041225,-0.0010698485109113397,-0.0001276399404390849,490168000000
-0.9966106053143569,-0.004349723221021827,4.620807604427979e-05,490173000000
-1.0038882835932714,-0.007787189399117248,0.00019495091570542798,490178000000
-0.9818519533959564,-0.03919690758688371,-0.0004991759758996849,490183000000
-0.9968475749413584,0.0024417297377579985,-0.00010660295258406398,490188000000
-0.9800565369394612,-0.0003594749116315947,6.125551404953102e-05,490193000000
-0.976461106419265,0.008118267147140912,0.0001796248970808705,490198000000
-0.9893548177669511,0.0029875944653601056,-0.00018569179403375493,490203000000
-0.978518209332898,0.007897723220413353,-0.0002109695008279917,490208000000
-0.9886901535230044,0.010049914633642331,-2.6639266306973442e-05,490213000000
-0.9584164199259532,-0.013225504441820614,-0.00013766602095975226,490218000000
-0.9543234887452356,0.03310259970098508,-0.00012171511863268364,490223000000
-0.9312074215046706,-0.01027424437181433,-0.0001392835483250254,490228000000
-0.9410898551313402,0.0216402719768804,0.00037711077374224904,490233000000
-0.9551672224405922,0.044932331770861526,0.0001307403365876306,490238000000
-0.9350138153497229,-0.008777736314899335,-0.0002502768355713784,490243000000
-0.9427767352675179,0.012371514044202947,-1.9699047253587547e-05,490248000000
-0.9447121508189084,-0.01876344202521712,-3.8855079658470006e-05,490253000000
-0.9194055652977345,-0.01536568095991555,-0.00019851202142823042,490258000000
-0.9335262946778103,0.00198249504246496,-0.000119247983713774,490263000000
-0.9513944969741475,-0.00636887139246031,-7.087351842139107e-05,490268000000
-0.9149885860247161,0.008743977515750635,-0.0002464430387470596,490273000000
-0.929381986153592,0.012535403002001186,-1.6075627917782207e-05,490278000000
-0.9251624325494474,0.0010151771416686145,6.433778055988976e-05,490283000000
-0.9349750284298134,0.00715123355852593,0.00019562153301497272,490288000000
-0.918720977981487,0.02277083274061177,8.779111882226077e-05,490293000000
-0.8970634084371267,0.012884366582459617,-0.0003324252738030896,490298000000
-0.8870054314428509,0.029068916186969888,-6.730800587855247e-05,490303000000
-0.9038298742354326,0.007942935528392436,-0.0003048980873209106,490308000000
-0.924431245376917,0.016854505991390656,-0.00011264169960709615,490313000000
-0.9048745384462028,-0.032010005605287876,0.0004316700902228829,490318000000
-0.8841929821358323,0.020319489226903503,-7.35092115736573e-05,490323000000
-0.8967228160950732,-0.011630963014570122,-0.00023343270812293743,490328000000
-0.9077687110869328,8.600355785073161e-06,9.777153080002628e-05,490333000000
-0.8566246218191799,-0.005074274158705042,0.00011864503443738834,490338000000
-0.8994606877658186,0.01762404170076439,-0.00014435556790573335,490343000000
-0.8566799337822972,-0.03508368000104018,5.453010742916635e-05,490348000000
-0.8562685037972836,0.0037368754753480606,-4.105540121499471e-05,490353000000
-0.8652925429408248,0.010301700561878884,-7.842908650272982e-05,490358000000
-0.8591366988114454,0.0033498727949743817,-3.65957508975157e-06,490363000000
-0.8570412650910684,0.011604191345058421,0.0001541039374982729,490368000000
-0.8197968591443364,0.03761465150441616,0.00013259369934554973,490373000000
-0.8521727557832285,-0.0008882167260558109,-0.0003690898474798494,490378000000
-0.8816230928825538,0.026746629053207963,0.00034510387045557907,490383000000
-0.8180503620345039,0.005334318183547768,-6.0936519266628164e-05,490388000000
-0.8830768343264866,0.020972287068113073,-4.6440287902289e-05,490393000000
-0.825311668668082,-0.008056495887268037,-9.136499086996906e-05,490398000000
-0.8240876647395946,0.043090711642528874,0.00036794546585309834,490403000000
-0.827951610655846,0.02261218338175366,-1.048042952462136e-05,490408000000
-0.8393433168022344,0.014191591415451558,-0.0001289803662498511,490413000000
-0.798476365658032,-0.006274748764288706,-5.715994873259528e-05,490418000000
-0.8088934338300878,0.010498976404140195,0.00020545301591855838,490423000000
-0.7729707076274204,0.02089820403960349,-0.00018129374130284613,490428000000
-0.8014647151769967,-0.052122143259744465,-0.00010111868387649545,490433000000
-0.7689322093097626,0.0061346219570453785,0.00011058081418511065,490438000000
-0.7913964095765684,-0.005091430201229895,-0.0001794340644371429,490443000000
-0.7887188191337925,0.018165384600191785,0.00022450551497969073,490448000000
-0.8093099525348061,-0.00044048962327851893,0.00020139138932114193,490453000000
-0.8176215282855993,0.010374139849797947,0.00032105105126164346,490458000000
-0.7734447403309718,-0.013459519064660804,8.389732780346665e-05,490463000000
-0.7528300294878182,0.004657639446929431,0.0001292020156736336,490468000000
-0.7674006660507252,-0.014215014686966638,3.2122672649186996e-05,490473000000
-0.72253530993489,0.003707638964823924,3.741638290571287e-05,490478000000
-0.7692262147342975,0.002180100908569859,1.982365980330435e-05,490483000000
-0.7487357174309519,-0.025845822488045355,-0.00011998943956591922,490488000000
-0.7401878963260964,-0.003815452270556576,-0.00012829881533335142,490493000000
-0.7132418213983167,-0.005718894089191829,-0.00028691000710762967,490498000000
-0.740302769499267,-0.0127096985732229,0.0003499771821386995,490503000000
-0.7380770977241791,0.005156924848270803,-0.00021701398985321703,490508000000
-0.7327994154379884,-0.0006757854508593329,-9.72983366180958e-05,490513000000
-0.7152554435599913,0.009642530701814873,-0.00035419348938136143,490518000000
-0.7502609356726755,-0.00042890062457943067,3.1041516433418744e-05,490523000000
-0.6988579584935759,-0.0028439929704695208,0.00017488363254909017,490528000000
-0.6963156964357509,0.011707739530390199,9.779371318109026e-05,490533000000
-0.6873498244502223,0.025433093628233757,0.00031219906118856115,490538000000
-0.7102479821481485,-0.004450966292504626,6.373674932666395e-05,490543000000
-0.6888005000715088,-0.002196922922446733,-0.0001912294560037872,490548000000
-0.6943175737752706,0.03163417727536217,-0.0002881758061624252,490553000000
-0.6839642474290829,0.004108364524341215,-6.678541239491512e-05,490558000000
-0.6600568769852604,-0.017592337825413775,-4.0543055761672706e-05,490563000000
-0.6675596096806923,0.02904207991935787,-0.00019012637081348088,490568000000
-0.6955677595793345,-0.016678305659520602,0.00010247126822397474,490573000000
-0.6703480037077318,-0.0001962273785249568,-0.0002320240466162612,490578000000
-0.655062131073114,0.012590250174723037,-2.469853231695898e-05,490583000000
-0.6679621316117467,-0.013772893114700731,-5.839343579457776e-05,490588000000
-0.6337052398519102,-0.020380600814191553,-5.066232021651328e-05,490593000000
-0.6427182226241842,-0.02558498889850702,-7.780603660723472e-05,490598000000
-0.6185361259188065,-0.009318335154966126,-5.134548310281614e-06,490603000000
-0.6508169776225936,-0.00568255898774717,3.722571985167871e-05,490608000000
-0.6145007407158481,0.004749387370348932,-0.0002355097097728401,490613000000
-0.6416916571653724,0.009393722118088242,-0.000500197941632437,490618000000
-0.6306260380942106,-0.0026952429907325503,5.3936911803296745e-05,490623000000
-0.6183405138315988,-0.004290636219796046,-4.9495404352361266e-06,490628000000
-0.6024580820445606,-0.014489542253706758,-9.215938206171228e-06,490633000000
-0.6043986453299743,0.013247874432185178,0.0001587165104098079,490638000000
-0.5965150948576401,-0.0011223063107126488,-0.00013785551281877224,490643000000
-0.5942708570283816,0.032261868031770245,-7.236458497033037e-05,490648000000
-0.5788365455716601,0.013677214979900272,0.00014504010751426922,490653000000
-0.5792616335208134,0.025075437184449798,-0.00047426331029856445,490658000000
-0.5689756339681478,0.018927078122557534,-6.388893403972798e-05,490663000000
-0.5688681410315146,0.005129063253731896,4.963786322047681e-05,490668000000
-0.5670663483782332,0.017059435344537126,0.0002871193075211881,490673000000
-0.5593534936408329,0.0051290563472515295,6.977147671102305e-05,490678000000
-0.5495419325114245,-0.023011123771594467,-8.224246271908205e-05,490683000000
-0.5723048951672759,0.011232196693855404,-7.379354972693668e-05,490688000000
-0.5276633308985118,0.0006942865686384397,-7.021440337215453e-05,490693000000
-0.5132677592551019,-0.0020071062549721448,-0.00044318344551119097,490698000000
-0.5111206054028288,-0.009424713274589018,-7.006834732193146e-06,490703000000
-0.5529915000883653,0.007884442051421529,0.0002666406493748184,490708000000
-0.5175997657099001,-0.013503953387470988,-7.455876313883628e-05,490713000000
-0.5255027915581297,-0.0017625121293656223,0.00013324770570418155,490718000000
-0.5118803381396851,-0.005260072822393495,2.4026305275501496e-05,490723000000
-0.4835055501420461,-0.017974203271058392,-3.819256473996406e-05,490728000000
-0.5334961629766419,0.019047686124409453,0.00021205769298532183,490733000000
-0.5197344468144315,0.007283010107143233,0.0001032589131373122,490738000000
-0.47985178374551424,0.0008986008116729781,0.0004269501370349028,490743000000
-0.4879739762564769,-0.008120495961831438,4.982181678809453e-05,490748000000
-0.49049337914839036,0.0002314703650313359,3.8845441018437384e-05,490753000000
-0.4671263029656392,0.018108168672027664,0.0001716984437799306,490758000000
-0.4590459925492317,-0.003243733045001043,-9.717398001768023e-05,490763000000
-0.45524441886858724,6.419835693345329e-05,0.0001687152755226666,490768000000
-0.45562420662338693,0.015539150020124346,-0.00018748871197731145,490773000000
-0.44878696934962237,-0.0001661614638224217,4.5339681880932605e-05,490778000000
-0.4511157807767164,0.004894053691723448,0.00010304146525936621,490783000000
-0.4134281922191827,0.01795560145941012,2.357604210127225e-05,490788000000
-0.441605502839009,-0.023126295169074145,5.696677280285744e-05,490793000000
-0.4107692254889299,0.004289663784126622,-0.00010339431936281849,490798000000
-0.4146141469525956,0.0211125816981195,-0.0002518360954310051,490803000000
-0.3850040400374588,-0.010221417192491497,0.00012960660102817847,490808000000
-0.3956608461068211,0.0023817159479086257,-0.0003316320139502967,490813000000
-0.38676642850283866,0.0020028164791740318,-0.0003621575933317814,490818000000
-0.39287622453451815,-0.0103443185141305,-8.757161295264537e-06,490823000000
-0.3791483405732232,0.011213568054209177,0.00026744524218406886,490828000000
-0.369081447154897,-0.0032376653687304115,2.4460750110155135e-05,490833000000
-0.38234372164678115,-0.01645943674201841,0.0002419241024516506,490838000000
-0.34903869002084564,0.00019168076879933426,3.3327194346000394e-05,490843000000
-0.35782231808494536,-0.012055632968892466,-5.83574322284056e-05,490848000000
-0.3600125637069839,0.00021998002502602557,0.0002556359023049504,490853000000
-0.3339070837340437,-0.012565577268799125,3.78850208379639e-05,490858000000
-0.3499513498445923,0.024517204303986885,5.565224673017079e-05,490863000000
-0.34109025124286446,0.005056400914799838,0.0001270385936182183,490868000000
-0.3651435287569256,0.022874538523340735,-7.47527285260843e-05,490873000000
-0.3411686411001114,0.006101990192993853,9.53090059752478e-05,490878000000
-0.33535794417969617,0.0023989932956275852,-0.0002547344158388019,490883000000
-0.30729543574115364,-0.000774649418393706,5.8369742943906404e-05,490888000000
-0.2970325529555409,-0.013422858398217049,6.605810261890241e-05,490893000000
-0.3052550515596277,-0.017603410050018916,0.00025055217938384867,490898000000
-0.272944920894567,-0.006960874138579462,0.0001690153741264252,490903000000
-0.29777073636987794,0.0046686487604395924,0.00018325532601580016,490908000000
-0.24581150442120886,0.02048890792853661,-0.0002012752724464452,490913000000
-0.27320471388497714,-0.002651595072171671,3.677351545457455e-05,490918000000
-0.2663766991602968,0.013716926760519572,-6.917886424551602e-05,490923000000
-0.24042541675796908,-0.006341316293532979,0.00016091103681938483,490928000000
-0.2453250932402208,0.001548123577861927,-5.762932996049607e-05,490933000000
-0.21336269031638413,0.007820838276514239,-5.334633011701849e-05,490938000000
-0.2561927874222261,-0.0050088557641328225,2.956371965001817e-05,490943000000
-0.1925429138244242,0.010465406746714312,-0.00022690181143919326,490948000000
-0.22033348274675793,0.0026687762627174393,0.00035723229331598063,490953000000
-0.18907815034947117,0.011593582750761654,-0.00044995870723958035,490958000000
-0.22801317009438032,-0.01764305325946469,6.640353664961561e-05,490963000000
-0.20407475650935092,0.014454201371847579,0.0002977095863463796,490968000000
-0.1796966424560458,-0.016679223835806185,0.00020764914732110686,490973000000
-0.16695199656254464,-0.0066541258691365825,1.1404707852317894e-05,490978000000
-0.20902057564297513,-0.021620864093024897,-0.0003549763789412655,490983000000
-0.14971885074545743,0.00814414464260616,3.5333165438635266e-05,490988000000
-0.15322229124578438,0.018613216017359043,-0.00010822640523617314,490993000000
-0.16700215377831293,-0.00691589161691238,0.00017134301407883032,490998000000
-0.1587498296262408,-0.01636451564263495,0.00013202019163115287,491003000000
-0.12397123125503941,-0.01280015035438481,-0.0002633647960429325,491008000000
-0.1406868413556043,-0.025818593360300415,-0.00032619193913857787,491013000000
-0.14424172451542158,-0.009482956109612169,-0.0003043582810793559,491018000000
-0.10088408461084619,-0.029203485600927653,-2.2859640395265373e-05,491023000000
-0.10473019352149045,0.023503956442650974,-5.261685395740424e-06,491028000000
-0.13545271878982007,0.0054906244912465985,9.839870265319084e-05,491033000000
-0.062449423590861974,0.018375097153898318,-4.119386138233678e-05,491038000000
-0.10084399182127626,0.0026198795864724052,-7.621073932699035e-05,491043000000
-0.09813438074233582,-0.01113393087930128,0.0005249966027775758,491048000000
-0.06860473064775624,-0.005487864230966524,0.00027362156860741017,491053000000
-0.04934413733762402,0.013718795730589711,4.933890644491866e-05,491058000000
-0.07050581571799049,-0.004836575697485343,7.645561385773072e-06,491063000000
-0.05718782138399056,-0.0024457105339056894,0.00032305049607023255,491068000000
-0.00724517971612465,0.0032996951678096855,-0.0001940826737897806,491073000000
-0.044993889904784125,-0.0164392163012958,0.00011990614822684452,491078000000
-0.018167248986436374,-0.014785073819151886,-0.00013216146322005836,491083000000
-0.03125562772718976,0.009459442956621754,0.0003225351819063103,491088000000
0.019909323332705436,-0.015496348791698469,1.3955033715149971e-05,491093000000
-0.003421851408338607,-0.0012188558911849143,0.00019554358732103483,491098000000
-0.009401139768396485,0.013274438817269684,-0.00024061579566483153,491103000000
0.015324746070952322,-0.009627271413136051,-1.2213254023818232e-05,491108000000
0.022503086762773086,-0.02099760453381823,0.0003456436834292423,491113000000
0.03298014367802315,-0.007308704274594205,-0.00017216914293522373,491118000000
0.003983331460272528,-0.024810909448432006,-0.000219788811491259,491123000000
0.012831978592619322,-0.02470868480155339,-4.11703125124005e-05,491128000000
0.06141380001729989,0.04406296980605207,0.00016685951833559916,491133000000
0.018285570721168144,-0.012744419135057425,0.0002767088669062788,491138000000
0.031669453992335166,0.0010740295994865682,0.00022682845506658426,491143000000
0.058021208387799825,0.007348988942245196,0.00011151465699962233,491148000000
0.08804537501307251,0.0038762488741940363,0.0003182163167598658,491153000000
0.07446239895493711,0.01437611555058347,-0.00018862213174895728,491158000000
0.08273816627921297,0.012685227636567736,-1.946513222200251e-05,491163000000
0.08076662709402227,-0.006826913806015692,0.00012054719833917331,491168000000
0.10955731299327161,0.007776424972708059,-0.00028209626948266943,491173000000
0.12460530348947985,0.005457109533226083,-7.397309958348122e-05,491178000000
0.12007891245672889,0.008717225227540155,-5.3622754660378705e-05,491183000000
0.1165004796256252,-0.011479272264341341,0.00014010585139192366,491188000000
0.1227655529555556,-0.008266457548380747,-0.0002110949787621976,491193000000
0.15325503148766467,0.02905682821511606,-0.00022738482225110235,491198000000
0.15837933620819353,-0.00979257206323239,-0.00017162477572613168,491203000000
0.1243346822449855,-0.01734219195087223,0.0003994690501423576,491208000000
0.15870815310533493,-0.008715893238596308,5.7963267070142626e-05,491213000000
0.17581691865294044,0.004573830659488536,-0.0001396861489305282,491218000000
0.16880209117839212,0.012678309900808789,-3.4258230325805354e-05,491223000000
0.2016473768635606,0.01743083789479628,0.0002579260260640566,491228000000
0.1783736212181672,-0.004559835263360637,7.183695751750274e-05,491233000000
0.2274700610218658,-0.025124485109939993,0.0003402187184685333,491238000000
0.20751856512530442,-0.0011566676603115905,-0.0003020706828381777,491243000000
0.2251590461596291,0.005626994222909847,-3.924994208259905e-05,491248000000
0.2084308677937663,-0.0007854053708518731,9.056827034566693e-06,491253000000
0.22470922775948723,0.0042038342906429785,0.0002025324602192892,491258000000
0.22594921752740216,0.011676929531815837,0.00019411824310532652,491263000000
0.22591797740743644,0.004857098116612266,0.00016292123549407675,491268000000
0.21175854514487064,0.002212426693353283,1.0652865798081468e-06,491273000000
0.2531866097327655,-0.03435078991105613,-2.888816698153598e-05,491278000000
0.23314748042230365,0.006554624205142342,0.00035519723328120845,491283000000
0.27361976227015933,0.020418665892929583,-0.00025588924719412886,491288000000
0.2425763738141017,-0.005462391826517893,0.00017664228198252633,491293000000
0.240830566141174,-0.010358342299458386,-0.00021203147353354896,491298000000
0.24535670936184423,0.003920550376495037,-0.00014846555146041823,491303000000
0.2773668566685302,0.00041890865552926093,0.00019279251766147326,491308000000
0.28217429929772225,-0.004589860864614301,-0.00012500448693251407,491313000000
0.2811076176890995,0.013958244730087957,-7.3420065101178675e-06,491318000000
0.2690793007527658,0.02963717682277498,0.00041442680631578624,491323000000
0.2902510161278979,-0.005175757245418218,-0.0001964330946570895,491328000000
0.3197637139356971,0.010172093299029216,0.00013663705829357437,491333000000
0.29299637998708233,0.014529439366910523,3.780406227574115e-05,491338000000
0.30446545139963843,0.0027502371192946857,-7.694953387655723e-06,491343000000
0.3207498947346183,-0.0384078609247858,-7.91618194292354e-05,491348000000
0.3269803366194439,-0.016013460143968865,-0.00025230294142580725,491353000000
0.365654184270671,-0.005321743635823419,0.0001749900420412421,491358000000
0.3664514115807256,0.0007333296415028236,-7.798935507153184e-05,491363000000
0.37021612290205963,0.001102371092391021,-0.0001648659214721237,491368000000
0.34853109032519486,0.007599857033503366,-0.0003527060601070176,491373000000
0.36070837978562803,-0.010415212643155345,-0.000228080012907404,491378000000
0.38959238136425595,-0.00011224661722895147,-0.00032301198619552054,491383000000
0.3720898395812944,0.00034223634153259354,-6.778126582728062e-05,491388000000
0.3765366656516907,-0.004327859779565626,-0.0005264290023252948,491393000000
0.41248020058461,-0.005109238605079956,-0.00020381113445529437,491398000000
0.402827480449692,0.0030601783887735847,-0.0003573536741370677,491403000000
0.3791806665948392,-0.007186368105379351,0.00016331278953645126,491408000000
0.4048647164128786,-0.0010324267300600752,-0.00024457448405489475,491413000000
0.4106896803590148,0.008244665228479213,8.924790126140362e-05,491418000000
0.4381846469857956,-0.00462078208907088,3.328241514046626e-05,491423000000
0.41276527751521,-0.007385871824922482,-0.00021063290920090278,491428000000
0.4034758247216462,-0.020227595034398256,-0.00020278539149513566,491433000000
0.41324020983438337,-0.016795538068377684,-0.0001875768192618912,491438000000
0.4271021871580238,-0.022265870539152265,3.559347553007346e-05,491443000000
0.45965052763095116,0.004294975269306284,-0.00021315259881639906,491448000000
0.440081248876797,0.027843120502130725,-0.00031259570442200324,491453000000
0.4385555068476702,-0.008138937845028081,-2.8989584827641592e-05,491458000000
0.42843223021254,-0.007544479166801542,0.00016670950344741748,491463000000
0.4801915496186806,-0.005219027654386151,3.803153271145897e-05,491468000000
0.4720104316733715,-0.019044189469612744,-9.8092525543114e-05,491473000000
0.4967367989837311,-0.03003255892733489,-0.0003638359256220728,491478000000
0.4809968931962529,0.005578575843315492,-4.040761234876006e-05,491483000000
0.46619841528116085,-0.003338923250083469,-5.3595746299804484e-05,491488000000
0.494760198286687,0.02106876778989117,-0.0003552261043325202,491493000000
0.48832459062449307,-0.0014185015031991635,-7.471562367371386e-05,491498000000
0.5247844826714096,-0.00657034689992363,1.0947498041256777e-05,491503000000
0.5046721638630062,-0.028178680428512376,-9.208376352686385e-05,491508000000
0.37277378377099724,-0.009412778451468548,9.618637251330412e-05,491513000000
0.4560380189278603,0.016572290060857572,-9.978202031536506e-05,491518000000
0.6231593242240505,-0.0027055661857912235,-0.0001679247176712272,491523000000
0.5118283928831209,0.0086790661896707,-7.030060437119948e-05,491528000000
0.28752676122590165,-0.013417644799100353,0.0004098309142991936,491533000000
0.7544589250851303,-0.04440222569761031,0.00022804863058916965,491538000000
0.6294136542032787,0.016994355030981748,4.922277080621543e-05,491543000000
0.21425089662470181,0.01181872171113374,-0.00011260935675593906,491548000000
0.682576665459567,-0.008319907426438235,0.00028884972957597715,491553000000
0.6843557554742781,0.035056050173813004,0.00018700103780804484,491558000000
0.3012888545140294,-0.01072525880360875,-0.0002192279447842918,491563000000
0.5789116742817498,0.014954087637999517,0.000143442741615115,491568000000
0.7420036315161314,0.00012762033244551692,-0.00014246778345161819,491573000000
0.43098213238366034,0.001383226980351883,0.00024223411659362858,491578000000
0.4130733178551012,-0.009657145325431627,0.0002422928728096585,491583000000
0.8281959945055866,-0.0007148783912818842,0.0001879240772115135,491588000000
0.454039942212876,0.0037852561601355553,-0.0001808146429269754,491593000000
0.3261403353606959,0.005834322360885514,6.135428802541616e-05,491598000000
0.8902980641804382,0.0019647438028230916,0.00012202440472684097,491603000000
0.6019075272589451,0.017594746859738674,-0.0002585194308014544,491608000000
0.21891285834433186,-0.002704790524195663,0.00021652276028116384,491613000000
0.7071148438989656,-0.017435000000800168,7.232217824253175e-05,491618000000
0.8403538870197494,0.023913304849459187,-8.684091223556386e-05,491623000000
0.25098264489518657,-0.028496041089891903,0.00020960859420328162,491628000000
0.5471264927224667,0.0023830044946609075,0.00031392917294304417,491633000000
0.999131234238699,0.004165442946348038,0.00011819028091003261,491638000000
0.5142080789391351,-0.021066891230886658,3.748049728864815e-05,491643000000
0.24589800630517344,-0.015303889798160702,-2.533877193268269e-05,491648000000
0.8917265620712477,-0.010819315312414202,0.00013910554804706657,491653000000
0.9508859768670329,0.023617615346444118,0.00021734934922026792,491658000000
0.33713773921016554,-0.007892529975179016,-0.00016110989822519148,491663000000
0.2941584020957774,-0.04506424773044868,-0.00023071477197534931,491668000000
1.185338803711734,-0.028284695768437163,-3.470590028328027e-06,491673000000
0.6546108402799047,0.026483535381895084,9.732484309639126e-05,491678000000
0.245085657354905,0.009402439690144985,-1.103403530375634e-05,491683000000
0.670103299090808,-0.0025389952048522502,-0.00011129968174776872,491688000000
1.1015882911056913,-0.013233385013401504,4.6063785709505795e-05,491693000000
0.44251760407356766,0.00549951207121919,-0.00014809472790117579,491698000000
0.29361149707263634,0.019844088282154042,0.0003542011930536353,491703000000
0.8723176536666813,0.01241606561216144,3.5625597469104544e-05,491708000000
1.040572641923058,-0.007757193683002648,7.81774116436782e-05,491713000000
0.3361040978041343,-0.0035728780706092158,-0.00028001341954903724,491718000000
0.320611082374015,0.016408557315440286,0.00022543496004516082,491723000000
1.01868640356609,-0.009420514937575602,-0.00037490966608269837,491728000000
1.0790040161156478,-0.005646454987307999,-0.00029412927885036344,491733000000
0.2560792968419156,-0.021513313221023768,-0.00014924961167141017,491738000000
0.34465843439417226,0.014204309575652437,-0.0001507878239566333,491743000000
1.0528607896559923,0.002077710967777964,0.00021036275208219203,491748000000
1.0725689839496533,-0.016052641762890212,-9.62219936055687e-05,491753000000
0.2584578167513638,-0.03164071059924492,-0.00022322118088959398,491758000000
0.35935401328728067,-0.007433057604807343,-0.00022623658400360616,491763000000
1.1174521960550872,0.0060633814553730896,-0.0001793689975829916,491768000000
0.9394212423582727,0.0017603001470992033,-0.00021404464550796296,491773000000
0.30183961687479394,-0.001255788668110056,-0.0003134879462434964,491778000000
0.3710711335356822,-0.025014842176633054,-7.224488780305115e-05,491783000000
1.2005452733185575,-0.02302398780006308,-0.000361494605485878,491788000000
0.9593293294325229,-0.027443634827941182,6.985840263334411e-05,491793000000
0.3109923544461004,-0.0035030993544275992,-0.00022029939337237395,491798000000
0.3771176403055318,0.012327246774098112,4.386944659810424e-05,491803000000
1.1196653989467429,-0.02424982654425782,-0.00029248615013950023,491808000000
1.0814945058430079,-0.006785096393231136,3.3756811141472194e-05,491813000000
0.29068687961101597,-0.01512603534135122,0.0004123710982163171,491818000000
0.3480207178116032,-0.008368078319821004,-0.00014678764810254803,491823000000
1.0304248784337355,-0.013417514353276521,-0.00035654552969335834,491828000000
1.1293152476686192,-0.011360145865316532,-6.484682311723872e-05,491833000000
0.3197667466749276,0.029753837572721546,-0.0002257731463387478,491838000000
0.3429310508198147,-0.0025322493816931917,0.00013726869320110902,491843000000
1.0394606034235725,0.006697157329465752,-1.4127815906253425e-05,491848000000
1.221926281788045,0.045050325805583866,-0.00023713789202108067,491853000000
0.29082422062798496,-0.002507738590290655,5.238634308112647e-05,491858000000
0.364807549082259,0.023642340359693995,0.00022183932131625815,491863000000
0.8208720278440694,0.029666473974879915,0.0002210199821491491,491868000000
1.3554636972431289,0.0035145103169429734,-0.0001765278239533297,491873000000
0.3636869784467244,-0.04078297605881023,-0.0003635263256431094,491878000000
0.3465487056103775,-0.012448489137948392,0.0002837786143497384,491883000000
0.7930949007204696,0.0073333483125604965,0.00027598703692988813,491888000000
1.3038179181975458,0.012652228325041731,-4.951348244108324e-05,491893000000
0.35199301304593056,-0.018147549887538604,2.5481519226549243e-05,491898000000
0.340433396227343,-0.031130378316662852,-0.00033127404656250776,491903000000
0.8139550689436543,-0.051149012635278844,7.886460711704636e-05,491908000000
1.3128226427645349,0.013403851461632744,0.00020302016392164426,491913000000
0.36156429735510065,-0.029881831347282933,0.00012990809325783204,491918000000
0.36142359058300655,-0.004927099375403129,2.0513746269660043e-05,491923000000
0.8223770089598589,0.00895086378923113,-0.00026498227703848957,491928000000
1.3447939810219054,-0.012767879355431357,3.4379049516805604e-05,491933000000
0.38494740078021245,0.024849483442741592,0.00040692469412170333,491938000000
0.35299627867754624,0.016028268520554636,-6.597017758127544e-05,491943000000
0.6766285732457453,0.01147961443529353,-0.00010066510220649225,491948000000
1.4093173218264665,-0.0036695075494620403,6.807761436331824e-07,491953000000
0.4857009180026838,-0.015662726535959785,0.0001341997009439468,491958000000
0.3423232805228599,0.0020045144895821224,-0.00025651816065477454,491963000000
0.4900343924085845,0.022764753229976134,-0.00011356045980246104,491968000000
1.4612644480280343,-0.00536459175573071,6.775208722813255e-05,491973000000
0.6222371707702351,0.008739739986629712,8.112667599681131e-05,491978000000
0.2939732620096938,0.01592251672666787,-0.0002997407675371875,491983000000
0.38099730821921274,0.000712325502325228,-0.00032816543996976673,491988000000
1.4620872801345866,0.020423823297848684,-0.0001378129976516662,491993000000
0.6983287472818976,0.019240106616422722,0.000507775589598424,491998000000
0.2995381019116281,0.02379065367423245,-0.00015322504825188586,492003000000
0.3766403156934687,-0.02726059577065735,0.00020099256869708713,492008000000
1.4666221281579868,0.004216850398437318,-0.0001332177107104203,492013000000
0.6734349661605076,0.006039741743066939,5.6027818797251745e-05,492018000000
0.33075541060365654,0.03869082421741204,-0.00019720210757230512,492023000000
0.49164609024367595,0.012251106436762303,-0.00019813820604114524,492028000000
1.3883501788214476,-0.0360066553590447,4.500863981673939e-05,492033000000
0.6008232678430631,-0.0003920291037472015,-0.0002240726473154764,492038000000
0.3005613473514492,0.014172972833538796,-7.00359993148574e-05,492043000000
-4.421389886681697,-0.03748388287447825,0.00035019292438342596,492048000000
-0.5409091394876772,0.013429437523984494,0.00044078403645990655,492053000000
2.4673818789704947,0.08390035805667259,0.0008644457564143543,492058000000
4.601401828955059,0.01484233197567809,0.00038755088766280975,492063000000
-4.613976100886171,-0.0663593285151396,0.0028453633455262175,492068000000
0.023123214910260682,0.004174182251574236,0.004169718364234884,492073000000
2.9007890257022937,0.09998833877126508,0.004596764755885976,492078000000
4.625123475465787,0.03558004615698513,0.0045233608070259,492083000000
-13.255980695255529,-0.17485308280784512,0.004035809909037534,492088000000
1.4821512387091818,0.008496140779640081,0.003400819066672784,492093000000
3.5522301875671456,0.2688676998253125,0.0035791621194476773,492098000000
4.833632248112096,0.060168914538366064,0.0030973763048026356,492103000000
-6.995589697897738,-0.34279329093488997,0.003161079268534615,492108000000
1.7302044307617575,0.005692722541464112,0.002732266934346743,492113000000
3.8765342865608434,0.2196157743106913,0.0024044589165787833,492118000000
4.877777159329433,-0.030869388810735733,0.002268811165980673,492123000000
-14.812695215428835,-0.22739039829092716,0.002314346135828457,492128000000
2.0344588885846986,0.04720331784778705,0.0018995500089330258,492133000000
3.908073019837755,0.3330848134717049,0.0015107438001540074,492138000000
-1.1814358622514567,-0.29326308295859155,0.0005686501885546901,492143000000
-2.8586335561248313,-0.03425875407053677,0.0008015994794447904,492148000000
-4.30521077996283,0.03756312535792082,0.00031516760230011065,492153000000
3.8550431490044286,0.3197742429965167,0.00022077625679909585,492158000000
-3.492010391812297,-0.3536359663061651,-0.00018808652824952492,492163000000
0.35264935266950187,0.006960934494753087,-0.0007810544762943905,492168000000
2.4387822958080942,0.1310788123842222,-0.0012692708794529535,492173000000
3.9616703720772164,0.23858607705356352,-0.0010729401082304134,492178000000
-6.192612136840065,-0.3771399669289778,-0.00547159676080464,492183000000
-4.568072037747585,-0.021119894180229463,-0.00859979075312045,492188000000
2.7184856998744995,0.16039389098287726,-0.00909569778238522,492193000000
4.129388439895073,0.15357645880954718,-0.008935514040228736,492198000000
-6.937741225985534,-0.2716383301771468,-0.00955148270381304,492203000000
3.1727678063516165,-0.06440887109986718,-0.008729105118833175,492208000000
2.6951005113011224,0.14173962027736928,-0.00853279826660385,492213000000
-8.278264466398259,-0.11953456976991247,-0.00840185811889286,492218000000
-1.0688702327602202,0.007390915084142552,-0.007717671927617351,492223000000
2.4987013319324394,-0.024314194750304247,-0.007771756274359927,492228000000
3.1089464549562473,0.30432043099134837,-0.007311996964696665,492233000000
-5.393906451534098,-0.23669241652359155,-0.00686034652190945,492238000000
3.370877407106444,-0.06761607736131929,-0.006543298811155788,492243000000
1.73924356834694,0.059662529593625016,-0.0062036289232516835,492248000000
-0.6283051714996161,0.09705428650288994,-0.004286911751722038,492253000000
-7.901568344222643,-0.15992396771500395,-0.004535842095524829,492258000000
2.719281035283809,-0.025389480740401555,-0.003991805257142802,492263000000
1.3033258374532932,0.03332425338789893,-0.004309545455963092,492268000000
1.1272242018911713,0.019848639303042922,-0.003220822458801234,492273000000
-4.085546632077653,-0.025804744003487555,0.00032287516801282514,492278000000
3.4188917979549083,-0.0591757559478947,0.0004548827804659619,492283000000
-5.203306538693571,0.00742994217090035,-2.241032472243313e-05,492288000000
1.1881326875041733,0.1243403578679725,0.0008144417847217694,492293000000
-3.858148361046342,-0.0899895135576903,0.000622265720569402,492298000000
3.1113448841428646,-0.07824347626436232,-0.00010298933180091321,492303000000
1.5066806876539238,0.012163221118634989,0.00010924647372817189,492308000000
0.821882717909146,-0.029851862452671064,-0.0006295937846983701,492313000000
0.6052930480291767,-0.015876622736412292,-0.00043225908467630454,492318000000
-6.309413934546481,-0.06651053131479527,3.0772761213800526e-05,492323000000
0.4557870791308727,0.018925142786955187,0.0002155039304731023,492328000000
0.503306095837281,-0.02997045079250289,-0.0005439326412078806,492333000000
0.5109248053790638,0.026340878841572168,-0.0006825859273773949,492338000000
0.45971203098728247,0.012951630878270988,-0.0007221422268761122,492343000000
0.4526854624096553,0.005341963743100303,-0.0010309624767255055,492348000000
0.20859220676574025,-0.016328658718954923,-0.001908414326522702,492353000000
-7.509319942567443,0.022367190060958934,-0.0024629933847320116,492358000000
-1.563306031012202,0.05408971625583406,-0.0038894359349859863,492363000000
-0.9081723000638801,0.053257797538301684,-0.004747769581026284,492368000000
0.21254679169548793,0.013575048338412436,-0.0043923525470086116,492373000000
0.4201114990124774,0.005770273467292942,-0.0038659865403614727,492378000000
0.44847897954533283,-0.012746423028262423,-0.003472652065003816,492383000000
-5.214984285688767,-0.005797426422436562,-0.0033578805921639816,492388000000
-0.24381277664480355,-0.014554965967940179,-0.0022762896944498383,492393000000
0.1889443875676918,0.013963446260113638,-0.0015590570207527157,492398000000
0.3078363340598249,-0.010326704962220414,-0.0012694012545416133,492403000000
0.4003302515609195,0.010160795719496813,-0.00011820157980489855,492408000000
0.3924764247245879,-0.007990332250346812,0.00022053934152536993,492413000000
0.411550675197039,0.0075375724556635305,0.0008196971352733372,492418000000
-6.533089596729879,0.0004937737473716397,0.0014563072952576593,492423000000
0.3401806637706918,-0.007148738746688011,0.001518062750381736,492428000000
0.5071830869773495,-0.025454541760832977,0.001535153963168112,492433000000
0.4247593524441727,-0.007598856737670395,0.0014764188535556953,492438000000
0.40393959180830047,0.012721376968917023,0.0011600826707829494,492443000000
0.32264533125203015,-0.015390230431178736,0.0010519732102572219,492448000000
0.4046112794626098,-0.025668189510532097,0.0006055341720937102,492453000000
-6.715595000456424,0.021609503507134538,0.0005569475935925417,492458000000
0.482394715445926,0.027789193763070923,-0.0002848438324863586,492463000000
0.3791453928754246,0.0027050140576438692,-0.0005674027371202422,492468000000
0.3287384398585378,0.0032625640987350994,-0.0007827733583919726,492473000000
0.4328199365772096,-0.006351255898820645,-0.0008743467833788783,492478000000
0.4831816730377383,-0.02134174040306843,-0.0016267460752904068,492483000000
0.4343356092091814,-0.013930976599197939,-0.001374875285706828,492488000000
-6.636951649817472,-0.0004660700371709632,-0.0012347576120347774,492493000000
0.6323718928024493,-0.005746898630382603,-0.0012162444438913011,492498000000
0.3914310709319152,0.037236881622796904,-0.0015180469583156893,492503000000
0.46320308131240645,0.006133173474282927,-0.0013135801055098025,492508000000
0.4723942071165624,0.006844682268634797,-0.0010103919803897395,492513000000
0.40971854713625167,-0.005673001082025769,-0.0008563635769635034,492518000000
0.23603878683333226,0.02264305909868959,-1.7370955287065548e-05,492523000000
-4.31042538417874,-0.013983444250478443,-0.00012321476141096012,492528000000
0.4127442189195525,0.019315367159036135,0.0002996410669087999,492533000000
0.4020129734963376,0.0178775761023712,0.00028353086825245967,492538000000
0.41238796490732044,-0.007481240378144076,0.0005679025627740369,492543000000
0.4000893203225761,0.00948590921527053,0.0008751859688286026,492548000000
0.4121678722799383,0.008549940055153662,0.0008147195479294742,492553000000
0.3729266697528399,0.0002728238446889075,0.0009738449392855532,492558000000
0.37492264187570973,0.013646431190868155,0.001008221664123715,492563000000
0.326991164851008,-0.026768940401738717,0.0007667671137206563,492568000000
0.3203312338718634,-0.01649057341360235,0.0007905782623045035,492573000000
0.3215054096677843,-0.01144106111539408,0.0004336763280984008,492578000000
0.3382643829890032,-0.007518266604830385,-9.03347644704305e-05,492583000000
0.2841542202481071,0.0022535686726898405,-0.00012759868531764403,492588000000
0.2735417910527632,-0.005621607775304966,0.0005191137716389769,492593000000
0.2726784274021788,0.0008145090550509058,-0.00019649978621837685,492598000000
0.24297253889437193,0.004867630380707922,-0.0004252812679734691,492603000000
0.2270072474865495,-0.01174539190212811,-4.935388617951455e-05,492608000000
0.22703985335625404,-0.015124697377965785,-0.00021768284316504591,492613000000
0.23649511638912118,-0.0014260943765400467,-0.0003761018872199649,492618000000
0.17616137327679451,0.0008802491879248259,-0.0003218702703236411,492623000000
0.19083260401668914,-0.013241554081065518,-0.0006247080239700343,492628000000
0.17247111703478324,0.017855584791176375,-0.0002535751754255063,492633000000
0.1426159314758884,0.03885144530886886,-0.0001881151501245869,492638000000
0.1658260154794789,0.022993938073811275,-6.997309691705132e-05,492643000000
0.14187768493176584,-0.006415593473896016,-0.0004686334125223537,492648000000
0.1337099734368746,0.04702585108876732,-0.00016653476766141057,492653000000
0.08358452163730641,9.576685591834635e-05,-4.005508978661195e-05,492658000000
0.09339652329919344,-0.025221157596912572,0.00023099216853240696,492663000000
0.08191416948594765,-0.04500143168196542,-0.00020044403402376528,492668000000
0.06520686645170516,-0.018765067872552797,-0.00039539111093703553,492673000000
0.0699599525186293,-0.008835157459501282,-0.00021672238177382352,492678000000
0.04616499968330301,0.028355734809609172,-0.000299965513847989,492683000000
0.0096839110251273,-0.024858210219028953,-6.013669868612689e-05,492688000000
0.0244582975209536,-0.022897581839504154,-0.00022423551329604817,492693000000
0.013622558747383563,0.03660027420976367,-1.4164001431333752e-05,492698000000
-0.0007847821908696945,0.049940888880602434,3.702159069132766e-05,492703000000
-0.006308619538138708,0.04321205023618773,-0.0002796832108775515,492708000000
-0.018798316807219564,0.021651633508823008,-4.49274939643912e-05,492713000000
-0.004906483824737785,-0.0035122089353365115,-0.00034106942055010705,492718000000
0.0007813818513409329,-0.012395438985195894,-0.00010438750512310674,492723000000
-0.00936238723602012,0.02748779325206935,-8.727990886823918e-05,492728000000
-0.04943351525035471,0.005618159632260799,0.00029861543342778326,492733000000
-0.07057078702328623,0.019751707476650723,8.891892480239427e-05,492738000000
-0.06266572163080204,0.021202246638582133,0.00017246210472172095,492743000000
-0.06256720715575281,0.02326454841713241,0.00032702886715550836,492748000000
-0.11180997230902774,0.005191894435823545,0.0003949929937291411,492753000000
