acc_x, acc_y, angular_z, stamp, 
-0.0562529999993404140.000480317361020898367.603784489683333e-052048266000000
-0.050956481822249336-0.011438464891831836-0.00026308004334895122048271000000
-0.06958841088895884-0.0377137710000122750.000281393319357734662048276000000
-0.0196926460604345340.044692080480298504-0.000206446149736001372048281000000
-0.063688282501048550.0200385510575302040.000123866546218129552048286000000
-0.044501156241021814-0.025209791648196715.4890554019494396e-052048291000000
-0.04059781884172901-0.029489456346832380.000216982199559010622048296000000
-0.0242643427558866840.013101087267896345-0.000205184442746664062048301000000
-0.05595670155284946-0.0047948243251500320.00031297264809294132048306000000
-0.026974798679468220.003355115027091704-0.000180906104982186192048311000000
-0.0427266101167907-0.012241414365139171-0.000193799526970571842048316000000
-0.04655815108572760.0120669260309833275.1476288940822684e-052048321000000
-0.07951540684980354-0.0010473758266847733-1.6819329456483954e-052048326000000
-0.06329420331864172-0.00235192053165181463.624669324668278e-062048331000000
-0.063778402709560230.044381968565016215-3.488508145064399e-052048336000000
-0.037824558301200534.829119164564434e-051.602696120824658e-052048341000000
-0.05204678424923555-0.018646245437495460.000138493166824248942048346000000
-0.0484470008097576950.03950195757693088-0.000128586300739077172048351000000
-0.06921691536601877-0.0192901062567095927.964467138517043e-052048356000000
-0.072498743720727970.0111265983658620732.413955231206249e-052048361000000
-0.0881737965003206-0.012717530844195926-3.0496727515735115e-052048366000000
-0.07438156339983412-0.009235964209761475-0.00018426508914992062048371000000
-0.05426473449181034-0.020685659692947125-0.000140097190133497052048376000000
-0.0552263624470538260.0207953573812895840.000164150527778237052048381000000
-0.039759668178070360.00662775682165226-7.850498614437585e-052048386000000
-0.0339397249149376160.012186496899321102-0.00036031374012302612048391000000
-0.03641302177649828-0.0069805684801472398.490395227292966e-052048396000000
-0.030415900823597310.0256837347423178080.000131030504638972052048401000000
-0.05182649140811325-0.032267177721775876-0.00020361966335062872048406000000
-0.0503835995789051060.0094715446786673860.00037303861654156372048411000000
-0.054483386263589850.010271571519897016-0.000402078251783242252048416000000
-0.0380565753271220750.003302945252518106-0.00030391245720987532048421000000
-0.03646256833993110.0215821031850666370.000257893219961466662048426000000
-0.083560308250132780.014602045655510425-0.00014349684583824442048431000000
-0.066350671959807190.0040664320315458990.000101745798766192512048436000000
-0.063646518177438450.00382669827768681960.000155254845726515152048441000000
-0.054610129542106510.0103763982837870760.000223611992171020042048446000000
-0.052898766296407766-0.0021295456023526327-3.317473334835651e-052048451000000
-0.039518987979549240.0012008192527872489.752496537633846e-052048456000000
-0.028421947933393890.009803579318964481-6.248194478431945e-052048461000000
-0.038772709974037284-0.0051789805034149186.832745296922219e-052048466000000
7.0342085624533280.02227313184302973-0.00113576980821647922048471000000
-0.1821661534893178-8.370791709833578e-05-0.0028881171041175792048476000000
0.06179382966897902-0.03901010071950623-0.00605770304532412048481000000
-0.28964600331291130.06138128421816544-0.009033899806673372048486000000
-0.0176551123013094740.0033118367801646927-0.0128573085037793982048491000000
0.20449130790389042-0.04768641575783594-0.0150599827241838952048496000000
-0.237070057625750480.08539095557901107-0.0190986561619841122048501000000
6.974167936109349-0.014750290315725237-0.0216348205763395932048506000000
-0.174613164112761260.02031752997502385-0.023461027752239382048511000000
-0.077072683563163420.01346207811438771-0.0249989119441964252048516000000
-0.0581176269944601860.008273748138051274-0.0255781763310789432048521000000
-0.06047868238520048-0.005184087012997949-0.025680653595517552048526000000
-0.06985998758673959-0.0036310234624701097-0.0247648955003276362048531000000
4.6879982957363010.0417136648469847-0.023534847027830782048536000000
1.196545193614798-0.015836632753068146-0.0220853743400159472048541000000
-0.15293556972357622-0.013340372022618225-0.0202267374043443342048546000000
-0.08653443373734278-0.01127742430937129-0.0183134824777300662048551000000
-0.06518155798988305-0.0031567574846046204-0.016165264609329582048556000000
-0.062824390494719010.008040297397673497-0.0143868838678897632048561000000
-0.04704798755856183-0.01308182015948899-0.0126704102496471882048566000000
6.783138755431762-0.004878252806702561-0.0117633103561322982048571000000
0.026191302399716253-0.008453009736455708-0.0103068491251839332048576000000
-0.120446761082844790.015408690692566042-0.0099554092763448362048581000000
-0.07663339834629682-0.02190510555377384-0.0102459850656293152048586000000
-0.05596109688965343-0.018648120167237034-0.010613300536085812048591000000
-0.04795894061976239-0.0007097553482038382-0.0111417695576551752048596000000
-0.034563916039935236-0.0028167755402253108-0.0118746342867688262048601000000
7.8587060728180775-0.014376937694313028-0.0117739440724669562048606000000
0.0061416049370698230.016046847764697145-0.0090109654325319752048611000000
-0.063289322574917330.008421303913387374-0.0061901237585242442048616000000
-0.07550889741522233-0.025142816461375693-0.00211019221753118652048621000000
-0.034260973199729230.00069488892143226320.0043856108675885262048626000000
-0.0575392349452881340.0159352322211633620.0089545278670506852048631000000
-0.056776592636867280.0080770492564046760.0153110946125691522048636000000
3.4349211264419073-0.0026225134090702950.034359583893682952048641000000
-0.12641220479275350.00331528899544151650.065975632536463072048646000000
-0.078806299487718290.034184540499099320.106083083017619932048651000000
-0.048830192713408950.0074480546325235970.150531447038604852048656000000
-0.076685128683811780.037568846604317690.19675186314430592048661000000
-0.045311520058349960.0130889114386331250.240502932353949932048666000000
-0.042022358888615490.0246378579523883720.27975431993737382048671000000
2.7643172997417350.0447379755526124340.329204474714941852048676000000
-0.105620629541987780.07249075323422220.380034770316089732048681000000
-0.0557133230810217960.072968558126309810.42829504931714812048686000000
-0.069815862144537850.104287088376004770.4627972273934212048691000000
-0.043756748272989660.14563153212184990.50677363567179312048696000000
-0.0360827513369312360.13040418871009470.53267682377032832048701000000
-0.0511703772430162560.141935053077262730.54889329700877222048706000000
-0.035715153211428610.078109184836565270.55305132905531242048711000000
-0.050717469679836270.112607233977840170.5477910885574992048716000000
-0.046691499610362510.124342626602196830.53309092597473862048721000000
-0.031050858107254740.127868671533293340.51094230363374472048726000000
-0.0091506156603352210.080537457455624280.483801213932990142048731000000
-0.0302682621424830680.132503564695453770.453497592863529142048736000000
-0.028666648631701090.117535743685795890.42174550342354092048741000000
-0.0240059100996277970.103793193934156880.39135462776743152048746000000
-0.0129001971277505520.068463356879382890.363594338276248262048751000000
-0.0126278123367637440.069804102744554980.34101462323879232048756000000
-0.033186308425704120.077619374155759090.323791689237304562048761000000
-0.018994386302780260.039843482369026120.31271916149155212048766000000
-0.0349576946934456940.0421123272486671340.308977029602251542048771000000
-0.051953160228538380.082142008273284590.310621260565058072048776000000
-0.039901950630718550.073374162666006910.31771066552090882048781000000
-0.03954805220164390.080326927823382550.33004934787779872048786000000
-0.040576842124212290.067776810091868050.34555196423716222048791000000
0.0288706690759562850.060910119451428440.363911439539537032048796000000
-0.0368995537793971460.071603345421277010.38242928004655582048801000000
-0.0077513670338821530.072917522261171920.40028043629044712048806000000
-0.0348634653990132840.075321446254489980.417022826284717932048811000000
-0.056293128280447430.08980047666768750.431476165965371862048816000000
-0.033488919055543060.094210387211003040.44256645712790612048821000000
-0.038674102979077690.071588023468427620.449811525212784062048826000000
-0.00065969544034468270.091145085100653360.453314538329797962048831000000
-0.013248346157588260.06939611547510280.453334377424931162048836000000
-0.086450033974114920.09758758959432120.450757409300906132048841000000
-0.018138968045177790.084041908139085960.443058831536958852048846000000
-0.0458338585525476650.065929697725846020.4345359212936712048851000000
-0.021722297034792290.103467679481455880.426456340688343262048856000000
-0.0092073709780542690.069236647859391530.41303423851478062048861000000
0.0116150621043093380.088733876539460780.402206545648706062048866000000
-0.00272687655485124440.087993408504585480.39418199869342022048871000000
-0.032293816570165140.087521553601537890.382929099709159452048876000000
-0.037178156609507420.10048770963171170.375857124645642362048881000000
-0.014176777926000450.078187890629309490.3707089344471512048886000000
-0.038079951363007670.072032346397651730.36828386370899462048891000000
-0.045253223229093180.057782503116516330.367773896517029852048896000000
-0.0141612137951155310.065330609487434920.368806888612009332048901000000
-0.0121726591474923940.0525376373789882140.37224378663887122048906000000
-0.034393335340644950.070141531574135750.377628728176271132048911000000
-0.033369730500025550.060443225113181620.38348318874278312048916000000
-0.035281440994438890.072860161439032540.39002750630920462048921000000
-0.0155450540863788290.0478674236806546360.39651579230242112048926000000
-0.0104102088434083610.123224163154085710.4017397424316712048931000000
0.0144901598135199550.093911085087219280.408488907936100042048936000000
-0.0049094024579096790.078721709680715640.411984109557283432048941000000
-0.032554133516894330.067134176400335730.415879563685058962048946000000
-0.066505772680942280.109445445795967710.418198674844988962048951000000
-0.0185926873656590760.081480052330826070.418779033790060042048956000000
-0.0185792309192860240.069318970046923330.418532799321791162048961000000
0.00210987027522001670.102313064173803040.416368763282815472048966000000
-0.018070754765509680.095118639200058060.41377914526851872048971000000
-0.0076607360905281050.084357061461505940.41038349462281312048976000000
0.0207292172849645430.094885887863249780.406909240801420772048981000000
-0.034459731490954880.098681338104952480.402692133485934632048986000000
-0.020306480973532950.088670370248144380.39861736541189532048991000000
-0.0271116041578448350.112220611214978590.39551728919102872048996000000
-0.0291979894099627660.068767535314881110.39261493075528672049001000000
-0.036823352365544090.076582538543299060.39052574899083532049006000000
-0.0161077352666560880.098489462808546050.388948773142878352049011000000
-0.030048085625093060.07898203252449570.38864483406255482049016000000
-0.0120041858711064670.079446093514491530.38858414627156262049021000000
-0.0496800821149843840.081817928222798850.38932613066133732049026000000
-0.0412836018290838460.088191147697000720.39120476735532152049031000000
-0.0114796278727393640.105452982547464160.392733073704193362049036000000
-0.0451701248655057150.056716319830406650.39514012845661642049041000000
-0.043832302896588240.047697448760715150.396470261069156952049046000000
-0.0423215590760829960.095248829136828060.400043898034344372049051000000
-0.0039818296433888690.074362190164620830.40136511273893132049056000000
-0.0370899726902955560.074147910022353810.40351015838547722049061000000
-0.036832138334591040.074015704561908650.40517060483740122049066000000
-0.0446938222197881260.070170808663562540.405665736883310652049071000000
-0.0252193205934940040.129296019636118110.406266689116119132049076000000
-0.00240330338749211720.110830446849645910.40643144558035172049081000000
-0.0247284557212048140.057251375242296410.405999632061972542049086000000
-0.0183258026761059340.048014452850538990.404988254571630962049091000000
-0.060468782122789890.088032495018911390.403780865019732762049096000000
-0.0206552848086593960.065230774707163210.402935844762507042049101000000
0.006551189792539370.09493828462487380.40170358427706772049106000000
-0.00749456613562711660.077737814635673270.400046858160042652049111000000
-0.0384755362624212840.109618522325309660.39869992626561272049116000000
-0.022977606676181510.072648951283074480.39749789957667292049121000000
-0.0225084078333562320.08626123550914120.39703120217563032049126000000
0.0021741122532850170.092440337066258480.396201964373702642049131000000
-0.031040052663659160.091365370822939450.395858572580683242049136000000
-0.026755808670406880.068368987113583720.395660767459147472049141000000
-0.048376293019617820.085487342724705860.395692047385665552049146000000
-0.0294989154736540960.095713089305350650.396157288510613942049151000000
-0.0096459188976021710.059794547050404580.396814085930823852049156000000
-0.0252540012690172060.099473751339073570.39759940593906282049161000000
0.0090093881862087530.060079701670468210.39835177778488982049166000000
0.0053416153531597320.069055592123495450.399552495682095942049171000000
-0.032027002509488560.05616166849800040.400111839279688132049176000000
-0.0099004354284586910.081490665913341140.40069768648186932049181000000
-0.0145557911218957420.087407245805548470.401284235931236132049186000000
0.00127844253361725920.076436913004537450.401660731211199552049191000000
-0.0194823494016353530.0553189683535017660.401905262202051362049196000000
-0.00343250695280838260.063043274425588380.40204990225184682049201000000
-0.0290947831528988070.072155612486041840.40195534422857242049206000000
-0.00203108314788138030.072665633164105060.401632475387661842049211000000
-0.089989096866605350.118659637240926860.4012782941574062049216000000
-0.017827187781218070.072063442915195920.400576254349496732049221000000
-0.041791149967620980.082919519992272070.400504008876742872049226000000
-0.0409529935093126550.091989273788450070.400196457611082752049231000000
-0.00148620786587079150.092288484104855710.399749048535392452049236000000
-0.0247126510056061570.091710738703209750.39947444822035912049241000000
-0.0295787077546001870.095190511327604450.39912201392793882049246000000
-0.00335422544338027930.090167759971258140.398893155710129232049251000000
-0.0093173280265188860.081968811272542350.39864718559405712049256000000
-0.019773581790756860.059130211803273920.398453041243354342049261000000
-0.0277939536709009730.058597140255152510.39821288777916182049266000000
-0.033278849829933290.080970384455854490.3987135443096712049271000000
-0.0213832707401923650.081900019051022510.3993061026803112049276000000
-0.0111180824309250560.094166810617237320.39936606002964762049281000000
-0.035308438643633580.097699482336377540.39979158649460342049286000000
-0.008779471618282550.0535554425933158150.400182899875544952049291000000
-0.0260503998813014920.070157990447784770.40022692390106942049296000000
-0.00480594717404533860.09903537350937810.400618583561428272049301000000
-0.0401734344402157260.083097477678621630.40084410126061972049306000000
-0.046191343315699960.096669081180267830.40104036685108572049311000000
-0.0180061570057475850.072596574664237560.401322237046220942049316000000
-0.0296445112690978220.0535576654441790.40136472958650452049321000000
-0.052213428901984510.070331506245298560.4014344855855162049326000000
-0.0312284876749151370.095802081080270410.40143963192246522049331000000
-0.0094907156231380870.064115651766516320.401038650026598162049336000000
-0.017355220633238160.098811686326761160.400772092709197452049341000000
-0.0301739521641169150.069799932708597650.400442015181339432049346000000
-0.0152936791891514890.059131487617575720.39982610160556612049351000000
-0.0361236177092675160.085452306605172820.40009102401149742049356000000
-0.018820834460783740.085855938743115090.39974691432538982049361000000
-0.0132248405043409940.095034850475649140.39998071703102212049366000000
-0.0482605250274520250.099245284843929920.40016641120085152049371000000
-0.022580436745532660.080596719765643640.399735496766245372049376000000
-0.0298147264264893370.089272389141122870.399797835530540552049381000000
-0.04698013285638540.091691943251277940.399308591626527542049386000000
-0.0421958645449028650.066932318841109880.399490384246581072049391000000
-0.051917102886043120.092951857099017220.399928177671093572049396000000
-0.0154149283822809370.093878744109336070.399903292374442442049401000000
-0.030877370735467330.039889523331607410.39989232471917692049406000000
-0.034150594984817070.078930593323041930.40027997322779782049411000000
-0.051850961828147350.055929418665084860.400328266522782642049416000000
0.00243098596881644730.08083412907603440.400259979678968042049421000000
-0.038130155633514010.092938329415901380.40018953181312792049426000000
-0.0620144656797998740.099347367259462080.400881682614502852049431000000
-0.0291508829172620680.073063526522754720.4004646512882292049436000000
-0.036708201679087040.10017814783496710.40063922119753512049441000000
-0.048408066502924160.048609768556955420.40057151892174812049446000000
-0.036733095636513180.081679377998005680.40054889909511332049451000000
-0.028547955449630970.071452938988194020.40030321227177972049456000000
-0.06400133684959020.094790809471170160.40052569430611222049461000000
-0.0312355833452008650.09361341412993680.40035358382274092049466000000
-0.0234341602901287740.081539786225747340.400621566231051052049471000000
-0.053927610122839920.084039719133461140.400027339202008342049476000000
-0.032765639393666250.113391534586389370.40006046798229852049481000000
-0.0060222514558672040.07507145113905420.400135196612593672049486000000
-0.013648403086220580.113155245775193120.399703740273923362049491000000
-0.015903243137202540.075413697504781340.399954408822167932049496000000
-0.0359863748349675550.128023408274987260.400054077087659832049501000000
-0.0257741897863681850.065146184235863940.399543586968403862049506000000
-0.053845050242789460.07444608849791070.399924826507451152049511000000
-0.054702141971420080.072404811712130150.400026942763834772049516000000
-0.059299483959036870.09936027562565560.39983778273888072049521000000
-0.076055805566622930.089472990133046980.399960083993049552049526000000
-0.073415178081532640.112662303927748920.40001544828948092049531000000
-0.026773173058699540.101147620350673050.400127429648153232049536000000
-0.0229627893040545080.079546601510161460.399812058899559062049541000000
-0.0215768742447471660.081381054374777310.400177125552133532049546000000
-0.0570472813285930750.075612072129221750.40024765300356962049551000000
-0.0149236620879040910.10275553051816770.400463971816385932049556000000
-0.0551124586339165060.100184335823474140.40045089805788482049561000000
-0.0039446663351667080.175730572199671420.399857333225338732049566000000
-0.14807408563384358-0.031377551476766290.39970932499171172049571000000
0.0248193648569782140.210619562040020720.39981963543040862049576000000
-0.066070052442638670.088930280068809760.399431887142204462049581000000
-0.12321888164340970.0059586101993890710.399531965551301662049586000000
0.032930467084039750.245908757687008680.399824178160391562049591000000
-0.030369083281432060.103340782347265290.399325717485397642049596000000
-0.131010065455487-0.0093615840564860150.39938320805329292049601000000
0.0163708520620119460.176405251610466050.399277643132294252049606000000
-0.078589059871797860.104753063863520680.39885310634260542049611000000
-0.16923131253411045-0.0482339653568789260.39892672753142432049616000000
0.0076758235150874540.218019684834226070.399718238973935552049621000000
-0.093973509611566680.077358139905013880.399230460656369472049626000000
-0.08365497502972410.093149027797522930.398895188977072552049631000000
-0.056966258046172650.113846255163052560.399008243622919532049636000000
-0.036453430145646670.091678667044463270.399482955666418672049641000000
-0.087382425290911560.099132730917458350.398912296064664942049646000000
-0.06986245700822210.110357696142840050.39979634565363592049651000000
-0.067316977394704710.080840095453293140.39926165985336962049656000000
-0.064868471238803350.073334391129607570.399906135487225032049661000000
-0.075031775683095230.080704358686162820.39993019599095822049666000000
-0.0559657545875679660.092718412096352730.400310664685689542049671000000
-0.0503438045262937640.09666271283983230.40010764464030182049676000000
-0.067558767607512210.11005494749442410.40019895843876372049681000000
-0.064845847950927890.067933576182052060.400469285566734452049686000000
-0.065532125435894570.092078461427379660.400271958879750762049691000000
-0.083138586973669980.099200900043653880.39992277463043352049696000000
-0.036831908779565020.069672077501152240.400283610909295262049701000000
-0.071488316021006580.090795781084287280.39987195868809692049706000000
-0.062714613161211640.092746990125598590.400075229172274562049711000000
-0.07007239354178320.093876130339270840.400287096575306642049716000000
-0.0566163700773251660.057350258015384390.399948288829618472049721000000
-0.061290846311695270.09807521347739310.3997636162013812049726000000
-0.0448771969742538250.106180059006987640.399882233922847052049731000000
-0.071736746399998910.066797751186737420.400009992235389632049736000000
-0.07471141058871730.118855760432927370.399622383611092152049741000000
-0.075271672155496180.087012218724861690.399740122096703842049746000000
-0.047860252366430280.069234371913642760.39961684183212772049751000000
-0.09254184130182260.076557060682948990.39998998653436342049756000000
-0.081693428138421160.106196442870975180.399397216266682342049761000000
-0.0541229619559387140.127366707714983870.39980084290915842049766000000
-0.085524572740667410.10389290772820810.39968676343966662049771000000
-0.074316145945005050.121123335190861940.39988141138411462049776000000
-0.090377576140214790.09272494648511010.399636843615607032049781000000
-0.060700826365777540.096055771336575830.399471353498105032049786000000
-0.058341883435785290.13612036813805620.400369403007815372049791000000
-0.0458246356731986660.106145271331144490.39963003402874242049796000000
-0.068376330948083430.115032026724409990.39991321640328932049801000000
-0.084318220078709820.111270980851478490.39998453207864332049806000000
-0.072486186068450770.07794959612569230.400009139104549942049811000000
-0.14452569878342747-0.151675744876610.400373780332322852049816000000
0.00183922057025540440.28887593616651860.400165487403812752049821000000
-0.0611018897532271750.089953047679286610.40051094270922912049826000000
-0.048423636865144270.073745492262192370.400278253815822942049831000000
-0.0412615996924824560.110250691107445410.400603160006378132049836000000
-0.068831541163571780.120361629606134180.400618957480033462049841000000
-0.12380474628612112-0.048918270999404610.40108642709302872049846000000
0.0242614909432651360.28735464843861710.400909783600422732049851000000
-0.11254465417631336-0.074509936980403810.4010680075137072049856000000
-0.067174662723409860.116336352379340740.40129056755169162049861000000
0.0044240802691360920.285464340823698150.400844342536389342049866000000
-0.11391406349189473-0.04555156368171510.40117453493629152049871000000
-0.005293571493594940.26187542460825670.40116945195390572049876000000
-0.1308782989425111-0.073527247940635680.401196272169884962049881000000
-0.06962985599505450.122515224773578820.400880531080050232049886000000
0.015285513103829510.262448703158475070.400851139274111032049891000000
-0.11860805652512492-0.0492268831020253040.400932038907851342049896000000
-0.0769049271471180.12903684668272940.40114754746545562049901000000
-0.0247497205033380480.112347892512005970.400655732217510552049906000000
-0.0618146382272225240.098576450200005040.400944495131119242049911000000
-0.057679469651329750.103194194161975140.40061227381016192049916000000
-0.064992966624130370.107028296196352110.400623834449544472049921000000
-0.0485821692187261360.070015946701581010.40042773660094992049926000000
-0.067537779218343950.104328946348862290.400504886822024842049931000000
-0.0177062590654654960.105518475660210320.400406301035865332049936000000
-0.041541817666813530.080212499832366570.400330308833123372049941000000
-0.038261668756465780.12038963190710050.4000308754833852049946000000
-0.051695734863093770.104793163186231180.40037925985331042049951000000
-0.0509149160363626950.089157571192156770.39979428861739612049956000000
-0.04645722800132640.121006584027311080.39980766770391622049961000000
-0.0546388738361679240.112708536244929820.399772462190571662049966000000
-0.0397345104989752650.114623209633697760.399950973955064852049971000000
-0.0393857017613694140.115818815679155760.39994073778899732049976000000
-0.069255175752395340.107863365747019070.400184885523925952049981000000
-0.0243751225579330080.097869582298818050.399809544088956472049986000000
-0.058273815089839890.114465807092329130.39975218945264362049991000000
-0.040257885055689730.108746433004177730.400302641695485352049996000000
-0.0262197170408173980.110046779936652460.40008530294723872050001000000
-0.069708597698037680.08794903502141610.400149444046747742050006000000
-0.023985485383126270.099348994814099490.4003830594341672050011000000
-0.05718062880266270.095105790148914210.4005870138057262050016000000
-0.041916793915940190.10345106597733770.400286746931518942050021000000
-0.0398656611437587860.117657846870299870.40042714107162752050026000000
-0.049136611306019490.09458136548895360.400129492531467732050031000000
-0.0564606161290311660.10920100034847680.40053126562017172050036000000
-0.082580746618110050.109478212425139050.40009483045501092050041000000
-0.074351549125142930.089558187454519820.400347153308961532050046000000
-0.066991128438240390.095402872739478920.40008015131406542050051000000
-0.0205296953287813670.094423877569677570.40021367018768882050056000000
-0.0445182313557566860.097720188937446380.40018966697986562050061000000
-0.046308666177774450.111167744642374490.40023833120845142050066000000
-0.060703920516971430.106226868574610490.399953721349984752050071000000
-0.036906492217219480.11518835627417550.39994527008373522050076000000
0.00721885206683195450.096090535464263830.39987651913020772050081000000
-0.055673211299550170.101663016502257540.39956902112662892050086000000
-0.0321660327091173660.09682030940272840.399791138746284252050091000000
-0.031335751381778120.087408941267435540.399625904818883662050096000000
-0.032726689313572280.125650776419753340.399714391119771362050101000000
-0.013417991662083780.137897217864622950.39981401369000652050106000000
-0.035695724656337230.13756530993569430.39995473081322122050111000000
-0.0701017581679090.152783251870379720.39999234104404352050116000000
-0.0184333308278725040.09954375723984420.39987338824618152050121000000
-0.045082096726851890.097078173070671630.399997331605344952050126000000
-0.0156622311646770240.112318041653725460.40004025496548862050131000000
-0.051948703790837450.126018687605980230.4001846721372462050136000000
-0.0382782891411967560.125293150578641270.40014844800694912050141000000
-0.0522533773764806350.114159695576367150.40003690231187842050146000000
-0.0458000150383473040.103799970264062470.400172842678279742050151000000
-0.0523231628384927260.103532918308357010.39958745706238292050156000000
-0.0282171711232378640.132939898285426240.39982204449999782050161000000
-0.044381811549494950.134020540671156650.40021181076122642050166000000
-0.0159361035994121660.151887581641915740.40017138272519592050171000000
-0.032530072949101880.109196371143839580.400182142505425832050176000000
-0.035848679858398690.119173835374444760.40002093063909242050181000000
-0.0358665592020835440.112313232667043810.400255799538903332050186000000
-0.04174137221138110.151855789225688150.40023798163965312050191000000
0.0081522541418386080.10014964206047170.400087182699360942050196000000
-0.0319753154646931560.121741977378343870.400140073148891052050201000000
-0.076297606568032640.08459326750762230.39994179196956742050206000000
0.00338880818276317270.14127550358195470.40016783611467962050211000000
-0.062117062266754910.1202167049304410.400049499873064932050216000000
-0.0051323112468542420.131016552189580750.39958349593460122050221000000
-0.0320040211024420140.123390342602414220.40016231683122342050226000000
-0.003486480441975720.102471017129169730.40010447569363552050231000000
-0.051296447965197240.119456653910275990.39966340907038762050236000000
-0.0175397620959110850.093332279235997170.40035137373374652050241000000
-0.0268756078637750440.109790015920015440.400122523517031542050246000000
-0.0063018506648344910.100293506099640680.400195151717745942050251000000
-0.065477172560935960.13151590344005520.400051588676611562050256000000
-0.059333371498276580.101338301487911360.40048238717028882050261000000
-0.03984911458351240.123064972739542530.4001545085735232050266000000
-0.05205485682384960.132314172220589420.40016275235752692050271000000
-0.035152783282155490.12149813542184330.40027043127194062050276000000
-0.036823967881840770.13506923206808930.40029978830503932050281000000
-0.0429727374626851860.11348464997420690.3999425699866732050286000000
-0.017315968638707860.138979360424633350.40009923889294622050291000000
-0.032648765086275060.111848529900689370.400092863530271742050296000000
-0.0411994089690654040.089543994905515690.40060376129462212050301000000
-0.067500689651800170.111729356575906240.399824234744964762050306000000
-0.042969318300462210.129281235238539630.400143439712783162050311000000
-0.06624448805934580.131807768028938260.40008320753707792050316000000
-0.044414789815616340.120989942600016120.40021576291415582050321000000
-0.03540831559689140.129549399795954260.40026475340235422050326000000
-0.044583102388377190.121049815767054740.400135282745613942050331000000
-0.0513054846942459860.133618071394604550.399970131559334862050336000000
-0.053636645151519050.083074812206407110.399639661736743652050341000000
-0.073143606507163660.109618708882278950.40002477503352050346000000
-0.064656590502674640.141994703845296280.399905077442029362050351000000
-0.024028205335119430.11946404233280150.40004904093301892050356000000
-0.0363687943582103740.102344487392989010.40003314124103892050361000000
-0.0024900219816141670.136719099446758950.400404582506291962050366000000
-0.024680141720747560.150162405977321280.400052748900119662050371000000
-0.038325692653572680.128823397589044870.40017167342396052050376000000
-0.0148003604360887020.131216816156703220.39977672024419162050381000000
-0.056572647801957340.107023742297475370.400468260406351032050386000000
-0.070327420200480660.13568123272747690.39996913998959782050391000000
-0.044114452238193910.117332936632110650.39983116842321252050396000000
-0.031476312014764770.094697510908229640.40011488397614332050401000000
0.0065706570189580510.120486441158780520.40029880572616682050406000000
-0.035618674552122430.133469441750165560.40022390948508012050411000000
-0.036170433836996620.141516778662084480.400238240152093362050416000000
-0.016568203214703620.127474402660407550.4002759164359792050421000000
-0.042971866495830150.123981039127411240.40025180176211512050426000000
-0.047266304506686790.098845471202530290.40032856618328632050431000000
-0.062818431402359650.13796112861189230.400414416950138742050436000000
-0.063500685626607820.125340312204143570.39983520488920452050441000000
-0.049893308417095090.115994361003136120.40005310657612612050446000000
-0.0520864657116355340.132863229148430240.400249925078619952050451000000
-0.0117259675228017920.099241192085963850.39983506442528282050456000000
-0.04406493410583680.13051396185328660.40036892653826272050461000000
-0.053000529693074810.129464248183152520.40005890198116432050466000000
-0.04792522397593920.15463037027876460.400084149127733272050471000000
-0.0210386397048256750.09944431645547880.39984413235826572050476000000
-0.069401837235451030.111463275861130760.400175327683981952050481000000
-0.031505487268934760.14827832808863990.39988490619035772050486000000
-0.15926814785608420.145673072193286180.40014704570276562050491000000
-0.169213491664978320.13334833154389990.401436812854340132050496000000
-0.064983626825025470.119178819819780970.40359529658850592050501000000
-0.073446340300229060.138281180658581970.40674148710201742050506000000
-0.060639956185412910.158075163273082080.40993460744021862050511000000
-0.069749503505495840.115520638587845310.413206021709455752050516000000
-0.06390605175366880.100347306477163030.416671651471441752050521000000
-0.052737675394064410.115245455316734390.419928640298636472050526000000
-0.031272889301118960.156707591065946530.422651589538626862050531000000
-0.044068310431864130.143253403260032860.42532019349264652050536000000
-0.0163385622080547240.135501049443685130.42669204272027182050541000000
-0.0274467301113493350.108607417758428460.427874506016259152050546000000
-0.0205075229041586440.113052671063815220.428354625731905862050551000000
-0.0116985796230325030.151714116348123870.42791328981967152050556000000
-0.054628440272105310.14781227617602440.42685980927323322050561000000
-0.0328708130645296440.13832786140343460.42554324595437812050566000000
-0.039987020495931350.113713998922361360.42407289748391012050571000000
-0.0570094818862169060.125625393185583130.421368962956609642050576000000
-0.054668678262256830.0896265919567690.418104203538362032050581000000
-0.0307217516132043160.227817533858102970.41418712919611252050586000000
-0.108880602985081790.131893837213266090.409456507103267252050591000000
-0.07642571814976733-0.0099018310467409760.40517411416891432050596000000
-0.024163540520410780.24371972898336720.40062549786605342050601000000
-0.0375429614133986550.094214462143413530.396025835930104762050606000000
-0.09313561296570927-0.0193005863793134360.392636919720765862050611000000
-0.0299583014377205160.236513887804875420.38940878223852322050616000000
-0.00074042032730482070.099223944532356920.3873120419460142050621000000
-0.12299981988391515-0.0054096562241058020.38655672277287112050626000000
-0.0095303672870026660.298357215674598830.38642826353245072050631000000
-0.0546089745312508260.12446706281966180.386831216081295562050636000000
-0.077635448212910280.10916349870349430.38838154789239932050641000000
-0.061488104524487690.138361460505204480.390421871780016472050646000000
-0.07823840587286330.114532677211764590.39278294132515882050651000000
-0.075711826609436010.12173240899987060.39557583132022092050656000000
-0.068900100651284410.139249996353590030.398131462275168552050661000000
-0.0467288351176841640.147234122410306560.40119549368207092050666000000
-0.038436264981678580.150559450167400940.40318891891035822050671000000
-0.042293311776965160.097685748736179230.40537370486963432050676000000
-0.069288305358782540.139321960269005870.407029195617603872050681000000
-0.0523359576790211060.113673335941167820.407486346611022342050686000000
-0.063744000791120140.10489184255486750.40800116601803542050691000000
-0.0613961226841989240.127734627353836530.40775957902393152050696000000
-0.0500451254287753860.14862805992174480.40673989519126862050701000000
-0.061844798553692140.117465474235810910.40607505089399972050706000000
-0.096187334970598980.16945469716300360.40473341521291362050711000000
-0.056324286466697390.136171771869711860.402868062641253852050716000000
-0.059942217422557950.121345904707724870.401352359743925862050721000000
-0.118470636831736630.10791080665301810.399599273323432372050726000000
-0.071789409462345420.142582045132022550.39816175574111662050731000000
-0.072434461648406220.139161568887295030.396759407666025742050736000000
-0.04752466720979960.142635616758732260.395693598014918662050741000000
-0.063246159955738940.117226079379899110.395467457685102162050746000000
-0.07272783349614530.123125497380091360.395395576606516752050751000000
-0.056267964224524580.125751286220802260.395198968009953242050756000000
-0.068703720935813420.141906207049727260.395499813249115762050761000000
-0.053702303011362820.116079027839891660.39603259647203752050766000000
-0.033800158985746170.125570676383123720.397089834205707762050771000000
-0.081717209804996610.123221185403658230.39785903865015962050776000000
-0.060636808026245690.154273420566191750.399115599868032362050781000000
-0.067346735338529250.108355248628254190.39958381158377382050786000000
-0.086520418754589660.097454529300987250.401062113797279132050791000000
-0.071709596452931070.174920721256095420.40157626147864962050796000000
-0.058337940444531730.126857708904945880.40262976735567712050801000000
-0.12633767077342195-0.042407870099607070.402947380658229942050806000000
-0.0142537178917919070.29095973822966540.40312812568259492050811000000
-0.041091122408485890.107825804749512170.403191758294704162050816000000
-0.074983097027345110.135269235150366370.403440214976935162050821000000
-0.050492582443711010.155635180116937720.403101457619665872050826000000
-0.0920830008310859-0.00059792536488180920.402563655901712342050831000000
0.0169193574362846160.28073415867519680.40196828014761312050836000000
-0.091168533930924790.006250168656413530.401688160065377332050841000000
-0.070687543924926850.110510445197429430.40106272553290292050846000000
-0.0215032671683916540.25665314339625840.4002416347982592050851000000
-0.08873868937178070.047589384911615090.39982371490322562050856000000
-0.0024757236074047090.25411739750150990.399730417894439642050861000000
-0.10556165801352262-0.0013148257993888280.399087099732105042050866000000
-0.066132195984829180.13539266757678180.39899108463099352050871000000
0.0100876493325799360.249041369166634940.39874097561458662050876000000
-0.112296679979793810.0096568711776150680.398786160856123732050881000000
-0.0464167415005450270.148784872745077040.399255406930984662050886000000
-0.146676536052972460.142732414004736960.399901002712431952050891000000
-0.129635161912606130.16366307033499350.401544244398617742050896000000
-0.117911721686923030.149036886063819850.403921626093510732050901000000
-0.09768913740182520.105433516927943240.40788789428628812050906000000
0.0573124065374935460.108502927510633710.411206922048286852050911000000
-0.05563798315345070.119737279406242920.41346846493459922050916000000
-0.125849890677506130.112789338998246240.415819150262497442050921000000
-0.110102042780129990.122585182959198420.41959854558716672050926000000
-0.0221954936666975480.104521183100001120.421520739141177162050931000000
-0.0571276445271420160.101457358205462550.42343890248088772050936000000
-0.018346951903572730.095003220760115690.4252088862518312050941000000
0.033832598110493080.145832417923522830.425522257417784162050946000000
0.039327849278614850.13117903948738270.424823328165805372050951000000
0.0055575059002673960.129676614254004170.42202157106371912050956000000
-0.0347360986260390540.156737082505062210.418648120076570262050961000000
-1.807130956890668e-050.13149752581602670.41357359870013662050966000000
-0.0395971569808587640.117411291542989280.40823245504262122050971000000
-0.0291169861668036170.134862925929010170.40325893599349822050976000000
-0.055378510465758330.154799171991384630.39810142974819042050981000000
-0.068708448182171280.11771985935489310.394760044706769452050986000000
-0.0412597364917137860.15571130172507640.390983170315491462050991000000
-0.055133801918655150.09365003069024530.387447377788221252050996000000
-0.076722953295978740.137864538531871750.385876206470096352051001000000
-0.0278302680373239130.116260556325957540.384659661253982932051006000000
-0.036396294199881720.12561871640518620.38533167777672322051011000000
-0.0285990336633977840.125013741850804880.386556335865061832051016000000
-0.0270597134255643120.101264580175002660.388575251097500132051021000000
-0.056524693020633660.090782500488196550.39125768985572832051026000000
-0.0559616431162603960.117284125433724730.39470160515463422051031000000
-0.0368786086422952450.12406376359683910.397300675357411152051036000000
-0.047958281081049920.107337238465772090.400485833026211442051041000000
-0.080190322523764780.120142077358225120.403121569444377162051046000000
-0.0411216294053712640.152297884800737250.40557895096837132051051000000
-0.042369534548096680.141798021169912640.407388889011993662051056000000
-0.0513431737514315340.113642693413449820.408607001731802532051061000000
-0.093426341704439360.121525751468320440.40903147912643232051066000000
-0.030950016254127480.164687553663877550.40892181064656942051071000000
-0.066991262313086680.146658053459598870.40840774684539552051076000000
-0.065118558634500420.12661061150134320.407467883044716762051081000000
-0.036198877918181190.105981612816161160.40580353116686682051086000000
-0.0411800147795432850.11694551507440230.403917595955330832051091000000
-0.0225674991568940750.12499108520244410.40252707098514472051096000000
-0.04875780489958010.125868140022525670.40034161899223712051101000000
0.00182923929068819210.12504570601634760.39869213079174842051106000000
-0.053436609430836130.125057914218901970.39760059641384732051111000000
-0.058368000749058640.107355737868840880.39618471518809622051116000000
-0.037804680493547170.12183584216162070.395415735243697552051121000000
-0.0112673629763008420.098178079039107690.39456111056395282051126000000
-0.033453095404537710.131327043353512640.394586911621418352051131000000
-0.0445872015250657340.12703303891695070.395078294982957772051136000000
-0.040730369752087130.102611341066643770.395691441207435272051141000000
-0.040001408100743910.163730651502937860.39682438879197782051146000000
-0.054338610481406890.1289285040965360.397324185830796872051151000000
-0.032195974204405910.091096698447784290.39852181895788222051156000000
-0.049534771038490750.117879344054856820.39965670080239532051161000000
-0.034120348177843990.140169046748515380.40057966255352482051166000000
-0.038215673197055650.158866265440885220.40161906039733192051171000000
-0.0243625609294449460.144702217108942240.40216613818031632051176000000
-0.054849292351928510.117835310136827910.40286835058562242051181000000
-0.092723817238174470.1447810069106020.403158127250008772051186000000
-0.0577439325312162560.114390311354354670.403123685207396052051191000000
-0.035539481581958010.111841282502938260.40319440570542232051196000000
-0.086293281193408760.137668772508137030.40281144522698672051201000000
-0.04907839521856510.171833633910846880.40244443673155192051206000000
-0.0146054544026119750.121878717491410120.40175856646677512051211000000
-0.04083601745415330.142594295100455180.400806931281081752051216000000
-0.053358629959831660.114510146802084820.400676933855820872051221000000
-0.0583741232887387550.08780361311007460.400136653281825242051226000000
-0.0555652567345195150.120887537661230920.398994964228095052051231000000
-0.008584763348026020.138066078891125240.39907044421492482051236000000
-0.0396451100862985350.123117819295314250.398485579490352072051241000000
-0.070692214143379810.117902843463728840.398129505889672442051246000000
-0.039104376197264690.13308081204482260.398337523564217532051251000000
-0.016721674994602780.1414067663463450.39855734701178522051256000000
-0.0557781199604550850.078838297903154330.398508377797970942051261000000
-0.058093398525321010.107886118660447480.398835611499012142051266000000
-0.0164618013511703060.08867330921801280.39944698819804692051271000000
-0.0236165565500772130.128729931938148270.39948522791660362051276000000
-0.084752015266593370.119207267230622140.399810090557530142051281000000
-0.021667728185914540.096877580208510520.39994754903221452051286000000
-0.045644967091769460.104705706346479690.400354807415281462051291000000
-0.057404653186797260.12852100730449970.40076078022462932051296000000
-0.06911206579563010.134797620947369830.400784422861209362051301000000
-0.050909578730274440.121877334438701680.40123679747212772051306000000
-0.0371359343405635450.107421109332251570.401124848381926642051311000000
-0.043680769717234140.233634724410897220.401162255960894662051316000000
-0.11549922181166529-0.045727873234259270.40070700871412192051321000000
-0.064694311592703720.1378954789288690.401029379291698242051326000000
0.00102069640426073050.208554794923118960.40049295721375022051331000000
-0.11385103264896193-0.07326377650590440.400042912662881172051336000000
-0.0163892131230683680.088072888855888930.40002106761109692051341000000
-0.03943970931565580.253590291396802170.399762523653666162051346000000
-0.09879734012445046-0.034350660224088390.399122208758045052051351000000
-0.034580086651412820.211955656821821520.39953132813710692051356000000
-0.055672634420980170.138811644741434150.398793707105310372051361000000
-0.073770531072704770.0153509551019291040.39932886598234382051366000000
-0.0224225981836253740.239597127598127570.398893121542230172051371000000
-0.0885713760576677-0.0210006261474099570.398894472202696142051376000000
-0.041235978884897880.25868379520847430.39934643887040172051381000000
-0.083001800884600020.09030005163901920.39925403651458342051386000000
-0.09367575369440684-0.0188203634226518260.39888415774035762051391000000
-0.0473679176403694750.279819968438376640.399453964330141852051396000000
-0.081297070764822840.128532292405279140.399464107509722051401000000
-0.09394823556369-0.0481283517307198460.40001084131034842051406000000
-0.028317160448633230.2672745995174150.40001675768355482051411000000
-0.040239953022734810.140843665248014780.399936407714537652051416000000
-0.11407742096513573-0.097357448929930670.399958730844706962051421000000
-0.0144989816450168550.2804808430863110.400498186862871642051426000000
-0.071243307007205270.116819707818465730.40038340486772132051431000000
-0.0455348256804225250.087782462226951550.40022584826121072051436000000
-0.038862796753947240.145940744428231180.400667157894236742051441000000
-0.0564907803612812040.13326920522321280.400019102740058532051446000000
-0.0536736611980209860.114298499736848970.399848291996150632051451000000
-0.11558120353229122-0.025689639070640550.40032107196311572051456000000
-0.0091293086776242580.29162959923719860.40006917092270412051461000000
-0.053450278371662990.100030294955898320.399757994207362742051466000000
-0.050747649349257090.115563780956516070.39976008356055612051471000000
-0.11703972933986065-0.079448291865184690.40015174622121232051476000000
-0.038579216583434680.27775971506369640.39989266341577742051481000000
-0.039360878185460240.113032859898158460.39952763768147142051486000000
-0.089994377663613180.133594296744857150.399426749555098052051491000000
-0.069129085556293160.127726504397181750.39998188442808642051496000000
-0.072743913913531880.136742086904166840.399828668905110152051501000000
-0.101165922115914560.118944179186912840.39969347692488272051506000000
-0.10544997331655886-0.059124068809588580.400053927182440262051511000000
-0.045545088719031740.313344020362545160.399915890101463562051516000000
-0.068043754079560950.117047720826246860.399973359587275152051521000000
-0.1258350057902954-0.05619261056615690.400268307545159742051526000000
-0.0025558524486081880.31569283919694460.40039670454723342051531000000
-0.0617831179175706850.111177243965349170.39995571381652642051536000000
-0.10688963492890735-0.090623143278342920.4000265500961172051541000000
-0.031711837887599240.289723327818742160.40003729565232132051546000000
-0.069832933406946820.138596679377345460.40008809691315992051551000000
-0.07955717812468727-0.043719764213645360.400835687615111572051556000000
-0.0110864430006278410.27618419191716260.40025013414562142051561000000
-0.08103262930372984-0.049497633224820250.400733852617480732051566000000
-0.0246404612734599130.30157560042966770.40014893570041552051571000000
-0.071602253543209220.13470316678799350.400632041036609432051576000000
-0.11650901227367681-0.0022153993148474120.40048185751239852051581000000
-0.036565221835469170.28976804946636190.399873881222998942051586000000
-0.09340528060607937-0.0383837129901483660.40057378223011872051591000000
-0.0136531940848901890.31582788617009680.40029723735370562051596000000
-0.10889650200925652-0.069318953872853440.400104040797674252051601000000
-0.101901695366105330.114052708283002620.400553106342211032051606000000
-0.0206666974212845740.289792046701657760.399702018994294642051611000000
-0.07359913049238449-0.036915908428301560.40050728761982442051616000000
-0.064978473977882450.130632446992506670.40081838946669712051621000000
-0.0463403373933608460.3157575867028660.400265455175151442051626000000
-0.07342748963488785-0.0303032677420720030.399828156416500662051631000000
-0.041268882492964440.158183710657287670.40072361006086892051636000000
-0.040235517424376740.25472879804393260.40028188900800732051641000000
-0.05974882924722555-0.0293179923647583570.400016596337100462051646000000
-0.079536407846296270.123938114469099290.40046755182481262051651000000
-0.051191235780335340.13149623839905440.400699938002051842051656000000
-0.073576473218816930.142137200518827360.400263668474364952051661000000
-0.041580970265142370.105841453010766470.40038058422976952051666000000
-0.0537251139604662950.140464790050140430.400744663554547462051671000000
-0.039177651503642310.15527180039962130.40029192897510542051676000000
-0.063368695449029510.14175763645401430.400447448131393772051681000000
-0.064787902674907860.122692399671448670.40029709905514722051686000000
-0.0603616093232105240.097651343113025370.40055682226647762051691000000
-0.061533231524519530.105077625463698780.400603746631029772051696000000
-0.048438389502803190.115082196274927940.400275109969995932051701000000
-0.048780511141593270.144915330126087370.400414320597935972051706000000
-0.064185442172607940.123746479638569010.40003891280043612051711000000
-0.052362587339116040.12707520510069540.400054766272513962051716000000
-0.059868625596442250.13245087798625470.400233507644618352051721000000
-0.0614955383267268560.106053588315539150.39993747497532772051726000000
-0.063608452339052160.13079891486564480.40017357537163342051731000000
-0.0320309982921905540.119458615582847750.400036787250100332051736000000
-0.0182901364899031930.138968674509821420.399839172765623032051741000000
-0.070754293284255370.158309311206288880.39987993041584932051746000000
-0.07277555375959750.12831632099049770.40012734384781242051751000000
-0.0395696554192724040.124220391234479190.400100582106220852051756000000
-0.054532127483256260.133550677043816430.400126990050497572051761000000
-0.0121215021757390960.121556861393776470.400018567622882462051766000000
-0.0299942651210665620.127993187646929630.400037832913777872051771000000
-0.051610421515746670.114206290585111770.40068962183904162051776000000
-0.081388435875094870.1265607575335630.39999600812310432051781000000
-0.042479431595690470.1312166961609830.40025510816107222051786000000
-0.050246605604582590.088644949811142740.40018517680591782051791000000
-0.033757065098859430.118479690828753540.400254343428813662051796000000
-0.0340416417832579560.133599141618102240.400157939529850852051801000000
-0.0088120506978041290.15004293915973210.399896104575018562051806000000
-0.035729265925323220.1224227539279370.39985704863962162051811000000
-0.037654658679999570.12670190319240870.3998028724155572051816000000
-0.056470019465386380.14239156365031940.39972622637139572051821000000
-0.0054061228103477670.130464389047678130.400133411865021662051826000000
-0.066952166501813040.139250686172215250.39987856239065752051831000000
-0.044677686935464050.14119920006187110.39990758315280262051836000000
-0.072240708647079070.109232279264512580.40021198258145342051841000000
-0.043353769679692110.14048619849758580.40008599523626262051846000000
-0.0455748352744146860.125942788523259460.399785712708438162051851000000
-0.0404386494836708530.105835820213253540.400267108811760252051856000000
-0.039743063870333060.12906836397932670.399832847126022352051861000000
-0.091605597200617060.132311311392972860.400056026140377052051866000000
-0.0466012634425310850.13765525208603060.399857605602756852051871000000
-0.039623785051866120.099384041487466930.40008341265025692051876000000
-0.046324789251603120.109841618462952680.400106129049694062051881000000
-0.071431307974633790.14024864509077760.40016951395501192051886000000
-0.052670360448452080.128692130666386570.40015912889892712051891000000
-0.058192568670707530.133841631491507460.399973794651805662051896000000
-0.04308228339004540.115900402038587880.399836426939543472051901000000
-0.0303836714930819650.12515225240229790.40015671677385992051906000000
-0.0294156437782692980.118177383020980410.40007703227334352051911000000
-0.051290799799452180.13131911946486940.399841893738579652051916000000
-0.045138713972858440.086759987737040770.40027904953388052051921000000
-0.074315311111441280.067406881268303690.40013392075169552051926000000
-0.0542205115537269940.122868196059637630.39979980045594362051931000000
-0.0204553024938157330.112777703234941960.4000120084291612051936000000
-0.061351876187685350.135874554118555620.400022172660181362051941000000
-0.0141716074045679650.098461050778181510.39992564375366292051946000000
-0.0202032124975687480.15052246296692650.39972383315536912051951000000
-0.0332030357659532160.1501480235673880.40041780790923242051956000000
-0.0131607078519946390.253808282340708570.399707781940091162051961000000
-0.1270464503194012-0.0353569738914864260.399682144270194052051966000000
-0.054890803173496560.124226145413557390.39997057150104492051971000000
-0.051907312960758720.107440386544938140.399391967436069362051976000000
-0.054688976514402490.085831276336533480.39996001424701552051981000000
-0.04279082460559050.245249145081701040.399413925049305452051986000000
-0.077606102955452440.0144107412391619410.399405116504491562051992000000
-0.071941219212270040.14878019312497620.399631436921004062051997000000
-0.0214017722849592570.250170771152265270.399402803145413432052002000000
-0.09603084031076334-0.02459048556226830.399610802336324572052007000000
-0.0231167935006880120.26119024335658660.399607394810685252052012000000
-0.05911640038391092-0.0147149284484176260.399681378574405672052017000000
-0.0203923842133081830.274615780625686760.400097432790295972052022000000
-0.0306136133803265420.141069538002079280.399816883735140352052027000000
-0.140909766536045530.0189837779687895140.40008850966597972052032000000
-0.047260363251792270.264367558518211370.400089171794989652052037000000
-0.067400757519740780.120701410525980920.400080183010104952052042000000
-0.0724803573138015-0.00305230814946791640.400193022001251842052047000000
-0.0061833109727521470.28449644248383160.3999420114138022052052000000
-0.0487250108788026060.110535047873607480.4001937546541862052057000000
-0.105691999227159240.0105673163947017750.400610552261547462052062000000
-0.011441881801733760.31397663183581470.40028538469397982052067000000
-0.101451745775525040.022989897566927210.39989111779134412052072000000
-0.043695294817910990.261893168487192850.40022267442354272052077000000
-0.08325857800323930.134172335743688230.3994653308080652052082000000
-0.101775314170637150.00320000951456249350.400151775581743142052087000000
-0.0158126606885995450.25621186091454130.400061677723921762052092000000
-0.0377484902478583540.105065720158797740.399935784361895642052097000000
-0.1294517050265774-0.032427797001354640.399946418866848062052102000000
-0.035183207253630750.31995700957458040.400134107040315052052107000000
-0.082673162916081110.1383296386200730.399785438323858272052112000000
-0.08342439865465524-0.043765538013463390.39996980155241472052117000000
-0.0288969624108471150.27881392105203130.399763567195922762052122000000
-0.056015967143656970.130369633024343850.400186691528016062052127000000
-0.059825135798707720.104041728807857310.3997623580831942052132000000
-0.048603663194052550.196109150923617910.399888186881440842052137000000
-0.07489374680037289-0.0349510604396283260.40030355244732262052142000000
-0.0532658523165521760.32272805888248490.40034318537576232052147000000
-0.0632663161421220.128545849055390240.399737123495754632052152000000
-0.10474839810985875-0.063685947925913120.400021122189951232052157000000
-0.0086733193964727390.303729222319813140.400066997412016462052162000000
-0.11099204652077935-0.059336529705150270.400252735887182962052167000000
-0.023230972546561360.349663267928770950.40053760431654412052172000000
-0.072754587816232260.131877780071524560.39978836676328432052177000000
-0.13267865112540758-0.050381088791051440.40087376991300562052182000000
-0.001573765783986410.32744531154670180.400082435693454252052187000000
-0.1011180277103569-0.09123237413461120.400170916948336952052192000000
0.00665936061576966750.331299676382367070.40061031805020542052197000000
-0.062806562517111240.142708011677739720.400165883824366352052202000000
-0.1248866357040665-0.100782539664702170.40069185986822872052207000000
0.00441636222866858150.378249556817416950.40047930393743292052212000000
-0.09066067003876352-0.056560236512961750.40060052442594432052217000000
-0.030677248414236460.34285605444633210.40030136875499812052222000000
-0.047456418350139780.163739307066157940.39972114424115172052227000000
-0.1007608805214677-0.079651424431794280.40101327800344432052232000000
0.0160681892785054930.38478657524055260.40044944043300922052237000000
-0.09906324971803558-0.0446759205660717040.40023898956716722052242000000
-0.070545562017637020.120694317965617540.40027232353713082052247000000
-0.00147399135736698540.31722996902484780.400040662205947532052252000000
-0.09900575359296696-0.102540218191575160.40033368075402122052257000000
-0.082123750775597140.145101567463632790.400469557870758942052262000000
-0.0041527354117350640.32463370091454740.400016063775521572052267000000
-0.10835594599298115-0.057979650862871450.40077705363506692052272000000
-0.014665645029585020.152683093980238970.400442746810651342052277000000
-0.040497463654121130.272982391435282630.40043437358323722052282000000
-0.10642737367680356-0.068493651203795910.400746302559260142052287000000
-0.07012636493436970.136824425617500860.40096840692739762052292000000
-0.093097307602086840.153159256871240520.400794631863501672052297000000
-0.106619626887256960.142745305128312820.40225873773650222052302000000
-0.07192788004621920.156743330984726560.405072204421567552052307000000
-0.100759451220742060.127490216936300030.407609258935486052052312000000
-0.085493495015147570.10831835980443230.41100276175029092052317000000
-0.0551679015339576750.104150515969234440.414092893851158552052322000000
-0.0052321005597184910.0416496590176193840.41735044058985762052327000000
-0.082423268187212740.155759803202057930.419572145928315042052332000000
-0.077331184198310590.134264093659358180.42197169788757562052337000000
-0.034630357480752910.122518085675786590.42330078080532092052342000000
-0.041734645869971740.145017408649610320.424570695518931732052347000000
-0.061859878458589130.139501806929003350.425107582463940652052352000000
-0.0267527526199791770.112042600785638490.424963886514020562052357000000
-0.040053025474929630.126530685093305420.42509912396798672052362000000
-0.0308575446226078440.124303667437380640.424568209702550272052367000000
-0.04845487802930710.117577979701830190.42386091751714622052372000000
-0.11079263822424640.168693341909213920.422657525242774452052377000000
0.0472750049432668560.13547593783635550.419574305964535652052382000000
-0.050141074581816560.108097506841434580.416212665630960542052387000000
-0.048354405968337190.130883823414089470.411551955880058442052392000000
-0.055576392960216930.133262965522424480.40666989001041562052397000000
-0.074698974944605080.131823437744079060.40238998134962852052402000000
-0.054476758151187950.108139972259720540.39795871066752282052407000000
-0.032555671089238650.140014662821649180.39380042904590992052412000000
-0.073598818394796120.14454706291299830.39053213099978392052417000000
-0.082039384397127380.116567853361132320.388399435906636672052422000000
-0.0468926106649086360.122738447628383110.3868836470192872052427000000
-0.053977706942196130.136786928061828130.38642453761974672052432000000
-0.048815983657745980.154327876735348760.38688443598877182052437000000
-0.09162847069436750.148620939064102680.387656857156546242052442000000
-0.067649706474047320.105532783250755320.38975473976944612052447000000
-0.051698993392731830.12518612500983720.392549918305920732052452000000
-0.0237460799065191130.138462556264364380.394845853175771262052457000000
-0.071997777941220140.104960673202054450.397474215322661362052462000000
-0.064725335031424430.14150365074216920.400427880978264042052467000000
-0.088500621872504170.11901298468002020.402465742183071632052472000000
-0.066894822619028970.133509729359044820.40484527620514512052477000000
-0.064908995920119630.119567691124650810.40637076914952682052482000000
-0.052984748519263380.164872676679610170.40718416678562342052487000000
-0.0553016894459071660.152601931717144060.4077337740571772052492000000
-0.0259047390980916770.20518726276331680.407713604778692452052497000000
-0.09637424019741608-0.0084226576430321480.406854291837662142052502000000
-0.050096422649023880.110353782284701970.40607564936416382052507000000
-0.0283074896421063970.235029983647786270.40514150949068872052512000000
-0.078419684743864210.0029977437422171130.40334329286372592052517000000
-0.062344387479634470.08450981811908390.402068012233503252052522000000
-0.0064033073788587950.28723240894115790.400133901711114352052527000000
-0.12000651321865260.0087316025177231120.39861280591466872052532000000
-0.067672446197712480.132647003318695170.39770019779759342052537000000
0.0043247754332716020.25443600410466080.396303513287225132052542000000
-0.10650133775288512-0.038704157041422460.395647251661006062052547000000
-0.031297660211943790.131575960365703070.39566390133829742052552000000
-0.023984736546591210.26909034238032940.39535043105695782052557000000
-0.09419284688862548-0.027799738841988070.39582617019156132052562000000
-0.0143530560148182090.25758425401654910.396167747940363862052567000000
-0.06957297392858872-0.0306942319186528020.39696790515897622052572000000
-0.06599128930155350.126790794240210.39810839188665492052577000000
0.00512191954342942550.267402573796271640.398053728512794472052582000000
-0.09308774307452976-0.050886435159644550.39960651418095792052587000000
-0.0186929693963170280.25197165150348780.400962847776763662052592000000
-0.058405001531637590.116343470291010720.401068923350723362052597000000
-0.107277246864618650.0025678097541152760.402047795325804262052602000000
0.0262920597206236920.311485372125904050.40241159579512662052607000000
-0.079332642189550180.029666250122486840.40261954919189112052613000000
-0.074431272423318040.13824756324870180.403036908367951032052618000000
-0.0041991152173538150.2905777593777280.40253140198067552052623000000
-0.09262342515848913-0.037187077255130870.402148586542302342052628000000
-0.0312634941760721740.300924113649567170.401704449444313272052633000000
-0.09060551129162026-0.0506276557347828740.40084970225268012052638000000
-0.0539480477302912850.107017028003885180.40111826502000812052643000000
-0.0038394405428030470.27390348481569120.400501058005579172052648000000
-0.13114365282176396-0.068116424350457160.399898299477922162052653000000
-0.0207262372519300240.27894108026096750.399153272511589442052658000000
-0.054447547132855970.141321355846021540.39861433908059052052663000000
-0.11902623166108883-0.05657037263472740.398567930376144132052668000000
-0.0226208282619206370.27739569314047180.39829761008632532052673000000
-0.10078690609731608-0.062903329737563920.39830543180794832052678000000
0.000312606863618466670.30159889739512710.3983380256421172052683000000
-0.07124855991651559-0.00359598970653430760.39854322942542672052688000000
-0.063345243671120020.086186456371416450.399417730101066352052693000000
-0.0096778475806670840.334114203423606650.39927029584288932052698000000
-0.058962343160585635-0.0380813098735903050.39985763397436092052703000000
-0.0039640399791686550.325763340171612460.40021750294916892052708000000
-0.08773318384358145-0.0578009672039320950.399934114802260042052713000000
-0.029340273503106050.123538613065770910.400564481473373532052718000000
0.0136496025864974240.272216200393939960.40040861167714982052723000000
-0.09859643538176906-0.064540670080792550.401137831018828052052728000000
-0.0417619787714340540.122506717022343320.40157690238640312052733000000
-0.0184911192102211570.28416021658746020.40114327258653812052738000000
-0.11259639587520878-0.060323147851434850.40061695081509712052743000000
-0.0063466748653827150.318245708033882750.401200995044047052052748000000
-0.12438653774905611-0.0174283588794462570.40095960445788172052753000000
-0.097829479720525530.102125466381096240.400535536438671352052758000000
-0.0056377864588516250.295119671615516330.400381761874050952052763000000
-0.11587137928025493-0.0605462063995198950.400322804916979362052768000000
-0.057251209924694260.14302036258927390.40048266059408812052773000000
-0.030257606820869760.32419137404891290.399925454773314762052778000000
-0.09892882904623868-0.056820707178441860.399961120951818072052783000000
-0.025159529279411580.142037156641943250.39992709768166682052788000000
-0.013821429675861640.2944653716803530.399690348200066272052793000000
-0.10721017730504784-0.050281140582364370.39975667272352012052798000000
-0.058078924613998310.11090842830136580.399978252699603962052803000000
-0.0195861917425284930.1340892858635470.39927581577266832052808000000
-0.071157311460074580.14245492176396130.39998010894991392052813000000
-0.011852570740011490.26525955508421630.400037639509123972052818000000
-0.09800056604964276-0.041930239279095850.39986807725194552052823000000
-0.0483409793696115840.10313510797121830.39996949432273812052828000000
-0.066174817033556180.152105516518146550.40055423016777092052833000000
-0.0484338914073681940.112259437883468260.4001069753334092052838000000
-0.035390769232544670.109655015285480310.40052419602699472052843000000
-0.0280328144436396730.251958306564683930.400566394872541252052848000000
-0.0821676319715836-0.0202083477428720640.40062288530322962052853000000
-0.084212814849366730.111005446893637770.400569622078563452052858000000
-0.046644027488113750.158674213217256330.4006521455528432052863000000
-0.0264892120564184860.137869399538007780.400461144874673162052868000000
-0.095607388145381060.085821177282318680.40046192126265322052873000000
-0.048157235975406180.140320655068304070.400518737789875232052878000000
0.00324585898420633350.304432051119213730.400422075988655532052883000000
-0.11726734945946334-0.069937537312071880.400473339631916562052888000000
-0.038352898231743340.14815707599618090.40029742937896772052893000000
-0.04165209744970540.144939097689915250.400299213024026432052898000000
0.0104270664932973080.29456112831802830.39959512447992512052903000000
-0.0884730479277662-0.0340291432672755950.39975641930021362052908000000
-0.032633104461974140.112450045037720880.40009026162513992052913000000
-0.053512123733389810.108115735758250150.40014260869247762052918000000
-0.0360852889397114060.153063520706470170.399921913627978132052923000000
-0.063468872260350760.101919399082825990.40026294410835642052928000000
-0.0588171542285418350.13732346184737670.399560725008734632052933000000
-0.0349628453314232150.28715222486546630.40000790448207012052938000000
-0.10182309957538759-0.044543032844076960.399836719001091132052943000000
-0.053840348712074470.116664440675269920.399772289694459662052948000000
-0.06318346130765240.14817370705074060.40050857440489682052953000000
-0.013709215751438970.251473764412215250.39988969357539972052958000000
-0.09755789109886925-0.0370698525831459350.399889586705375442052963000000
-0.046617938754536270.106933878156559120.400228223740326852052968000000
-0.062580633138299590.117445648262705320.400204221406821552052973000000
-0.015198423816530720.289100132812153960.400199432876886862052978000000
-0.07128786100966869-0.0219807900827402520.400250417591307862052983000000
-0.0357713766688338850.118750382552957510.40003027135296742052988000000
-0.068236400711584850.082588400962207850.400131421977343362052993000000
-0.0617206457667046350.122018086444211730.399865742393315352052998000000
-0.0377798661268638340.137154601413175060.400140713294914962053003000000
-0.0303799444676739540.136924453235831330.399868044518675472053008000000
-0.068630921281647160.12997695305312290.39982742111831222053013000000
-0.045150012222053590.101724246991577380.400160558630187242053018000000
-0.0230549532557844070.120297565675876360.39971420503593522053023000000
-0.081007863348608590.126470521659178210.40016936509267412053028000000
-0.049693669398166530.155761593519655380.40026216201056862053033000000
-0.0057586577893237390.246817701856538450.399859611229941242053038000000
-0.1036428583744285-0.023042762930411110.399572491128346252053043000000
-0.0425582617351887640.12472892545774470.39984982580087412053048000000
-0.074846726287411060.10427085464829710.400038060258546662053053000000
-0.078291211731216170.10621832812091040.400317722515915632053058000000
-0.0016725435634074130.24894851063161550.40002024955390452053063000000
-0.1266279194010494-0.0420801976456584360.39985811565105472053068000000
-0.0377018694301222560.16280825487300880.40019685746193392053073000000
0.018103893519633560.26194552353325550.40012519622395732053078000000
-0.12202039279777664-0.070875215565514020.39966865355979272053083000000
-0.0447887176284014340.12909054675025270.40014040568416672053088000000
0.0103164853861484260.26404483378087190.40026684073953622053093000000
-0.06825463964883517-0.0155194604120697420.40034020596046322053098000000
-0.061243155024026120.132381521632914780.40018350901300692053103000000
-0.0527605017799227040.241483285147558040.39980398612239622053108000000
-0.08925615349446017-0.026436849132448270.40027764358706582053113000000
-0.0196107279023814180.229224275947564670.399996018679756042053118000000
-0.059474362152574650.0057198534495426010.39979594169204272053123000000
-0.059384959399522690.108643496921596560.40009447122603482053128000000
-0.000149421768846056540.251383205389089540.40029471604693932053133000000
-0.11256685815848338-0.0099770524618275560.400189414790535162053138000000
-0.069113265638160640.14233634178848620.400626275288475552053143000000
-0.0047589196206446520.270083781109123230.39973783880465152053148000000
-0.10461465359526823-0.050343851911849930.39995916781794662053153000000
-0.022564210277667640.295804682973003550.40057917057578332053158000000
-0.095789264447200330.0061922444904694170.399940879560788832053163000000
-0.0608007883330936240.11045433125107340.400082587101621262053168000000
-0.0039121502649696380.26904803749027890.399942871791705462053173000000
-0.10628762305489-0.038992560630687430.39997622870821922053178000000
-0.0214400356017979060.150540697554561150.40006713903906322053183000000
-0.063438169361980030.244656580542578130.39987464077430792053188000000
-0.0970169887583338-0.069172533375850530.400043564700199642053193000000
-0.034881579893369570.303119657772267740.400447227283342752053198000000
-0.054989715862073030.142992754896072350.399950863240273352053203000000
-0.11119134703099642-0.0617883445732413240.40044470897081272053208000000
-0.0272485769454592070.280860100996969950.39985766952949582053213000000
-0.10371075300906656-0.042159535486238980.400118416141346362053218000000
-0.0095907367829902720.313024513663625440.39993030194474082053223000000
-0.06815478906499249-0.044129241744405530.40024866099731762053228000000
-0.010897549271792990.123557581153739350.40036944062971562053233000000
-0.033310022319673920.286927750376012870.39954318653587132053238000000
-0.09061396259915-0.056862409353869170.39997271411431612053243000000
-0.032624528142015940.288619831999811060.40043784009777612053248000000
-0.050506928168158460.112868749119449950.39977159709147592053253000000
-0.13016642662259215-0.079817120359065340.400441885299329842053258000000
-0.043909940626118540.282653324500540040.40026348215022022053263000000
-0.064787053548046090.12930940456240730.39977646621598062053268000000
-0.12252412274101462-0.034772700991192020.400377120059992042053273000000
-0.0199179939088783080.292859537541499850.40044102688406042053278000000
-0.08896079504498283-0.0086025005599779310.3998710646239842053283000000
-0.0139442674356804520.280594663754130670.400355418014157972053288000000
-0.06155491042243896-0.0159060638017533560.40018124293939782053293000000
-0.070461807489431150.114947500813290210.40002538418338582053298000000
-0.033970247608876030.307356644466282140.40010128916699652053303000000
-0.12060567234131807-0.065426700645353070.40019707455117242053308000000
-0.057468894025928480.124365329817478370.400486330715028152053313000000
0.0172676422412804570.275734973789882650.399879693505673652053318000000
-0.13850664568080584-0.0902758774457960.40029621794449182053323000000
-0.0304384529286477260.261933830366142040.399909580325961472053328000000
-0.10688682961123736-0.0120672499105463450.39997022919874112053333000000
-0.089763721245967960.125525931352025060.400448599868554862053338000000
-0.025048509935925740.30979221003238360.400332582930308432053343000000
-0.08864234582586053-0.0046414493568151310.39988764631921982053348000000
-0.023379122236887130.126493516890327260.40053164044168722053353000000
-0.0141023643431228820.27838001880105050.40006923753538412053358000000
-0.09212211071815452-0.042758558296558730.40010415719388362053363000000
-0.062686936482604460.146994480308530740.40024184703855392053368000000
-0.000146538848671943360.27622474289926870.400156093444413052053373000000
-0.08114367384463653-0.00426134289101359750.40005118113146382053378000000
-0.077585965816099110.10872478831752750.40017217920862392053383000000
-0.078279725072408740.139241067207113570.400259489764782652053388000000
-0.061239790312270140.133852515058619530.40026509400498342053393000000
-0.070941651552712760.148858761892087660.40030675657626622053398000000
-0.08646003478224340.115003473354187290.40045318812632982053403000000
-0.0076078724354997840.141582205932919230.400083265889683742053408000000
-0.0540611135816664450.124297167177304410.400181289417790632053413000000
-0.017856405615165320.139703976867758260.40018982068795422053418000000
-0.064578467736601840.147756862845048940.39982031368705432053423000000
-0.054730065344435370.129940186833274960.400661732510385342053428000000
-0.0357718374334772060.132218051721004340.40059186375055842053433000000
0.0185741655106786830.31906041852219270.399946088299116542053438000000
-0.139304397863878940.00533601985487645350.39999359612171692053443000000
-0.053704329989806390.141529406996712260.400275410228343452053448000000
-0.0404709076282230160.125704972672377350.400218433397896762053453000000
-0.100755873254324460.3442347914302750.40048361983564382053458000000
-0.030150095933882362-0.0019779249622539290.401552110747128272053463000000
-0.0375072929605156850.157242012759109540.40242826715689022053468000000
-0.117528534829269420.119186414777125240.40294867169412342053473000000
-0.144180365933824550.174098727777940780.40451740524742752053478000000
-0.0145257472979510170.129890108869149730.405736150625486072053483000000
0.0274273520252349620.118800661673478930.40725351830417662053488000000
0.00212778776143334250.096644529709739750.408181671862510032053493000000
-0.099301692787027430.129320706858906450.408879972914417472053498000000
-0.07141768851111340.15246010108489590.40946469398399192053503000000
-0.0107356099008429870.124529317083097530.409609646794207472053508000000
-0.0319093790240532260.116018295421627430.409126375801496632053513000000
-0.033821023255650480.27027456991190150.40845669005519762053518000000
-0.08324326768888647-0.0128761198151292680.40697144109926842053523000000
-0.0467105890148285660.14612479484048630.406164157270867962053528000000
-0.0059181592671314810.24924246142603950.403375605501780252053533000000
-0.07213144675156416-0.0180348470568421730.40129878708296762053538000000
-0.076761004561550230.121532862590121140.400135868248934932053543000000
-0.0558174143541802850.143537644153012650.397741866257301072053548000000
-0.078297003999086370.122671144345143910.396465490971109672053553000000
-0.037519201037861750.17141728225852240.395971685075375452053558000000
-0.0613352567303819960.120286622134761560.394663389292707832053563000000
-0.031260055285327120.136670975609978430.394371844707219142053568000000
-0.00682292936164940.246500079635946580.39421227368295152053573000000
-0.08300961861127472-0.0174977984213636820.394541274619701452053578000000
-0.077220075541445030.160776152876341950.395546739621939652053583000000
-0.0100363410968465180.280691810527923640.396428081332484752053588000000
-0.10470726594228541-0.045164086200008240.39744678012035972053593000000
-0.031671821576819010.23300371226724030.399039081986354572053598000000
-0.0900010622777164-0.010155865449191750.39986880127980122053603000000
-0.0483649811113790050.101712407614895740.40106205448196942053608000000
-0.018657605022073960.30842859326348470.401795875859663642053613000000
-0.11844847278107001-0.011964183607913240.40290770852463032053618000000
-0.0087946275715794950.29915466074161960.4034638296310882053623000000
-0.10083038121384794-0.019951964425012660.40358649403648462053628000000
-0.074649242860606870.12851125516005840.403592943310946752053633000000
-0.051247191770297750.248601119827844330.402846973002143172053638000000
-0.09418746310852369-0.034361691393076680.40299675595056562053643000000
-0.040999460032015630.129544876028779180.402662002749875242053648000000
-0.0060163480773058330.25788065615713940.40142216583572532053653000000
-0.113980030579314010.00206708134750166130.40101654843484192053658000000
-0.0193289856913191650.26786368280130260.39996994212098842053663000000
-0.09918677317842149-0.0510958148203074160.399623311253267552053668000000
-0.066835516711243240.129985021444002950.39924527963794972053673000000
0.0095384793067672960.336335820173815250.399104228101491042053678000000
-0.08385124189076276-0.0138227347148040250.398527726599069932053683000000
-0.0200614912305062780.29942837698402840.398277813463080942053688000000
-0.061713452227744770.161559379821017040.39795595400846192053693000000
-0.10642722884828652-0.025577703353118880.398393317848666942053698000000
-0.006024096031841810.306645466341048060.39844329728391322053703000000
-0.1129242007178494-0.062406627924776510.398671169440432742053708000000
0.0069756806285411340.35146172813099010.39897358613200642053713000000
-0.0826925509606703-0.041783352614927870.399199211334087152053718000000
-0.070810078678507890.126468643754907850.400130742815390962053723000000
-0.009087216261936670.306869266934760130.39997434205334352053728000000
-0.10053899835873682-0.045036336750439970.40027938804111692053733000000
-0.075732279398986610.15780390306010490.40091623867909812053738000000
-0.0232200093130441980.27422090209482970.40069053766844252053743000000
-0.132192155942669250.00751440894717474860.401446964958659672053748000000
0.0018580945567123110.29984188473116330.401268244020208332053753000000
-0.10146639776817253-0.076278118942000320.401257292864798332053758000000
-0.078212381363960140.137125466259957950.40145626952210272053763000000
-0.022870467690897020.28030611386704070.40078744460576972053768000000
-0.10830327274672655-0.056447871795618250.400834961950287342053773000000
-0.027910597362809770.27277826272982910.40063329531106112053778000000
-0.11262073794631122-0.046546272320734090.400546949121141972053783000000
-0.076643784410407150.15218872280410880.4003052658997552053788000000
-0.0035775557209126330.28527981302595290.399488053173661432053793000000
-0.105405084552289-0.0196890487371973560.400030430142489352053798000000
-0.0477346873923342050.145120775689331820.40012202599775342053803000000
0.009905660240432470.31779332852114970.399297491862869842053808000000
-0.12093865249255789-0.0218495472593227340.399488146738701142053813000000
-0.073471082834183370.13983359577966380.399995813352047872053818000000
0.0131279476072745160.29950380388610410.399304898082161632053823000000
-0.10249931562244333-0.048518641458449370.399473478093209432053828000000
-0.063368561760576770.143421547853078950.39997246713331632053833000000
-0.0306240913361036930.3549479170672070.399155362427967342053838000000
-0.10152406786841380.0198265380916408280.400261140047863062053843000000
0.0255927949357492440.325003524177616240.4001552096390992053848000000
-0.08773413540539508-0.0267797910294819560.40027363119367452053853000000
-0.039496696929573450.15191057501180960.400506103835890142053858000000
-0.0274190753160729150.2630080846662840.40058984732043582053863000000
-0.07970011622855493-0.069490713039840350.400440942378338942053868000000
-0.056876227270968960.142081353416439150.400796037387913532053873000000
-0.024906289286108350.267809736487353730.40050859881363222053878000000
-0.08034915518137915-0.0417407705529846340.400689806814327532053883000000
-0.051729741923556990.14037850494896890.40060703109813492053888000000
-0.0097091684391664120.26662182133393560.40087201814182312053893000000
-0.08991248652387161-0.0254396561736150820.4002058630900852053898000000
-0.0567479457963466150.160567497884824080.40071909375701222053903000000
-0.075203551556604280.1536820785612670.40044990517225072053908000000
-0.054973341423362930.137471220833970540.40027624820301322053913000000
-0.079801824864240740.110509168908301480.40017925004254942053918000000
-0.0378769851010886740.12906380485894310.400302586342353162053923000000
0.0294319052449605880.26996916446538680.399738590234310742053928000000
-0.06808191067309377-0.0089136145967843320.39987282824579172053933000000
-0.0297954364139481970.106872671055113710.400024917351344662053938000000
-0.051502236113091790.1396926421936060.400135971130427762053943000000
-0.041000057370475020.141278893287730940.399800961384434052053948000000
-0.065472448818898330.106006039183692640.399531066232082342053953000000
-0.047175163877489980.136739367976396380.399745279737794172053958000000
0.00335377979039420960.280112585874784550.39958868998656042053963000000
-0.13583782898184588-0.0090289132918466920.399896084189963362053968000000
-0.031703085611421020.15052321117612180.400145441804063252053973000000
0.0066540579948154610.27985254169065390.40008691898679672053978000000
-0.10940117958699137-0.0071414330952194630.399895598163587442053983000000
-0.0268956782621359230.137668644207138790.400048641619982272053988000000
-0.0324843607247166650.236772968109889350.3999198635619892053993000000
-0.09066784472899020.022827385950624460.40031822394515832053998000000
-0.083183800640412560.125411671444518620.400121087009252862054003000000
-0.0165063074782233340.231605032247879540.39965783514579172054008000000
-0.08883260328119803-0.032184158331166970.40005904683502882054013000000
-0.063805393651060530.134404299055390340.400145255327126142054018000000
-0.00437539884128452550.28614202680664310.400095132640417132054023000000
-0.08769045981468102-0.018853696979571110.40011880218509972054028000000
-0.033331911840923670.141691415531343120.39997256405031932054033000000
-0.044421148878187340.162712430631175830.39982215732917982054038000000
-0.0460190046795751140.133075290492147860.400404227744523332054043000000
-0.027686075496869410.270770341359752030.39981425950579862054048000000
-0.11074405210326695-0.037269964694477070.40016477382013052054053000000
-0.0049889674881893370.269674289157620040.40018412102447392054058000000
-0.08964484099322813-0.0158770350596083920.39958464787783122054063000000
-0.052348266229529420.12601195524160070.40037247846256042054068000000
-0.013104355289306340.257436033171173360.400267523309076832054073000000
-0.10678617551598678-0.088865998697899210.399993811832100872054078000000
-0.066337268353158950.159013083559902430.40016852477312682054083000000
-0.00408866108123389150.26273462328654570.399710305729663152054088000000
-0.1414794534337526-0.0205924048759997360.40002252426764332054093000000
-0.05570312758642290.31038568549515360.400250029105419072054098000000
-0.09588612668610272-0.068125573710921760.39993540032598022054103000000
-0.059478719359952440.113539601436601940.39992429159000322054108000000
-0.0259751308812781680.245967330970484620.399957263787496852054113000000
-0.09209988484049132-0.055876115275338620.39986121465154682054118000000
-0.034450484343803390.28677346472056630.39998093670265742054123000000
-0.06099039214887622-0.0254286139835769550.400029699352043362054128000000
-0.05499280066731610.104135821802979090.40020653167702492054133000000
-0.047855416796724220.301321111841173940.40026362645285412054138000000
-0.11027940958962518-0.03432413240452120.40026606147985172054143000000
-0.03257995023335490.26812277612153780.39998805266804322054148000000
-0.0352105458690262150.13532688826549260.399725444819567232054153000000
-0.11852218656879047-0.0570528196149055340.40048638667411052054158000000
-0.010080398806368090.283977393142001930.40065229823097932054163000000
-0.067616904549029080.144840311117775620.40020892804970542054168000000
-0.10630631338596169-0.039675364890113750.40023213400856362054173000000
-0.0286670284088571050.27029979386086510.400233369105410462054178000000
-0.09617066755602163-0.06382209698288290.40022087473589332054183000000
-0.049044193756942880.157676093978013330.40018428242981812054188000000
0.000485164390778223750.292191821897491650.39950676949746832054193000000
-0.105460454928932760.0028501708580371750.40031141037664312054198000000
-0.0204589893163130070.2862181825346410.39970938459741612054203000000
-0.1166194017338412-0.0325451290839179060.399941121519837742054208000000
-0.072136690195482090.133077369187836720.400347003092127562054213000000
-0.0173451750046622230.296011148178256740.40014599037251082054218000000
-0.10909693434906206-0.019925224833924570.399837196586708972054223000000
-0.081248057742793210.094698173899091440.39997148207190612054228000000
-0.043663939614731440.273707839017625460.40004875777133762054233000000
-0.10391149062697623-0.062015743121578410.400205895137981272054238000000
-0.061334802698855930.126538071978372220.400252475185788662054243000000
-0.0097961721791148710.28992347837267710.40006466012752432054248000000
-0.08237662126251963-0.053934334099133850.400035100241085852054253000000
0.0065483240831926690.244508767701824840.400253205650267842054258000000
-0.098105187411780580.016584850938367310.39987698313767792054263000000
-0.087419660245567060.109830476703209150.400418568990495052054268000000
-0.0231185961667674730.288955562953586040.400098462370004852054273000000
-0.12878150734273175-0.042781227299833220.40027534537166682054278000000
-0.066738143571869770.131422850486354350.40029920100806582054283000000
0.0110833759567841720.32760769041306120.400362838137012572054288000000
-0.10912607857925569-0.0304510085196414150.40008121488101172054293000000
-0.068340285394890320.120243010687196840.40025996205344612054298000000
0.00101078501219290830.298572839740932350.400600365078384872054303000000
-0.06768498463866016-0.0508362761915760.39998088415949432054308000000
-0.039647498660662360.130697652993001870.40023727517560242054313000000
-0.0092495875644547540.279393908677610550.400325174601210752054318000000
-0.13142753976369534-0.043251148881315920.400357204015854842054323000000
-0.051267609404358610.113309096314357010.40070354842380612054328000000
-0.0611983369943315950.13436749434711440.39993435853735952054333000000
-0.075567121611103110.129002638106746730.400279181441767162054338000000
-0.0251346746199677430.26108295824028660.400188656134232054343000000
-0.10918136667911649-0.036637185938029910.400090343356312332054348000000
-0.0489133194991946960.117514023185495930.40019800799023172054353000000
-0.0321564911018617640.31083599298073780.400023320179034862054358000000
-0.10162185175622532-0.019188679173276880.400040916417776842054363000000
-0.0607255073181955230.131768577001663360.4001717928312482054368000000
-0.0133006112840129260.27234127167491930.40027694369072732054373000000
-0.14514689919614282-0.082342237823617880.399825500822455662054378000000
-0.057476073962701360.14237138574803750.40042635837398542054383000000
-0.025074333593507530.266887450179178530.40047201403701282054388000000
-0.098474852497933130.020372699747641310.40001075796782062054393000000
-0.043465941109036110.143514404291050560.400207845354870862054398000000
-0.0526686462722035860.317692059509473050.40030645702944792054403000000
-0.11284365165525126-0.02841248634996680.40007551358818992054408000000
-0.029133409434120110.155372594782821450.40018296178662862054413000000
0.0079562582900799540.323057072226324850.40019566186979342054418000000
-0.09873527388374646-0.037252331906922440.39994000077811012054423000000
-0.078014804483381450.134340038968500030.40034303603735582054428000000
-0.0289020171288613160.264422371270652160.400334768248840342054433000000
-0.11899581002171705-0.009424220678432020.400231527937319642054438000000
-0.066698967589211080.129047502779739140.399913704583454432054443000000
-0.0141495956377848050.106730895063710680.4001033500633522054448000000
-0.047267887993726040.12676898111065180.400061118041399042054453000000
-0.026073893030616380.14986286986374680.39992101749009212054458000000
-0.064088695364713650.137827260113137730.400289098462906332054463000000
-0.0439572590732586340.13549294698716080.399766989021785042054468000000
-0.0595618072539037740.121571034792493140.400335789761504972054473000000
-0.066904454277700380.141184942335843250.400176606754457152054478000000
-0.074267655661944710.144618584987020960.399780959918975832054483000000
-0.0511052542890861740.107784724851861980.40014784002300522054488000000
-0.025968908376439430.26937974161367640.400146892976237342054493000000
-0.113635970956233070.0092355647887467220.399934006285737832054498000000
-0.065511374991302330.138520402747525080.40026540178681152054503000000
-0.027159153552823970.26262602974840990.400149319437313972054508000000
-0.0770030764663611-0.0091433100381682830.400125794523416232054513000000
-0.074687360744929710.102592505910022950.39986691883838112054518000000
-0.0009567735594916520.279701598574110140.39968550954815172054523000000
-0.09569262228548019-0.039727085874196930.39964420266910412054528000000
-0.0311975864590883360.144191186101283370.400215623079606732054533000000
-0.0246432568737248140.267196085341748660.399996376623783572054538000000
-0.09118162761310726-0.026882189503029370.400122290397844862054543000000
-0.0246763234106913350.297326469036579170.399984338613099232054548000000
-0.079135560888460310.0152827914725835070.399868006983679252054553000000
-0.0270599405353596880.128971788227446950.400368547888598162054558000000
-0.0230675135644506850.27007908968338630.399876654313815972054563000000
-0.09299083149403643-0.03746609462213440.400096889062277642054568000000
-0.032896831765855510.266998983123891360.400324868939172242054573000000
-0.0814488933542240.0072643659305848950.39966077464095912054578000000
-0.0515487669164170150.112423455778512440.40031866828791212054583000000
-0.0154785220713750570.29235383298603430.4000348473646112054588000000
-0.08310938649470798-0.036895031481551920.40002150333287822054593000000
-0.034169752020320180.124042367820121650.40028205036542992054598000000
-0.0260947509261391860.247208304712748430.400196622684716842054603000000
-0.09166867010456899-0.0195261529145870570.4002111182827612054608000000
-0.044027997194950430.279034512878827470.40041337415222272054613000000
-0.077171528921563180.0146675350731217710.3997047920853242054618000000
-0.06624652052880220.109859640381901050.400221634081710242054623000000
-0.00649948229012329950.277628111948127640.399872510109512642054628000000
-0.07213661069421781-0.055591485526658530.40032981700254352054633000000
-0.061007439241775710.140927293120566480.400371155753659562054638000000
-0.0230783533311451560.2595724227194790.400114302447231842054643000000
-0.1053539481581724-0.0171075770274906540.4000086234069312054648000000
-0.075821911939331410.141648767881627060.40015240369067362054653000000
-0.0132684179743718970.29263019067214040.39986671793556352054658000000
-0.11637656369776242-0.085837519631249170.399708074734041962054663000000
-0.071176419328558590.123557441590487290.400168223908389852054668000000
-0.0230072745044706120.28702823841270510.39975557993036422054673000000
-0.07775736735724542-0.067475556468559250.39976464665132942054678000000
-0.048276355804172210.15010597048620840.40016255176279452054683000000
-0.0046154502185373810.28606608312678050.3998300862944972054688000000
-0.09379100328378012-0.0204708532764483130.399771965128109362054693000000
-0.0252354213536480560.136518822574835830.40025791904623192054698000000
-0.0050414655877591330.281780034929947240.399800852997066472054703000000
-0.07015913170405717-0.0365797995356595550.39995536666567252054708000000
-0.076693496303039290.12683176302042120.400341443116414842054713000000
-0.0040964340298555780.27679947414287090.400170562735340742054718000000
-0.12347577334525352-0.082179354470973580.39993373957745652054723000000
-0.0303498803728274240.295993527154392750.40027217668043092054728000000
-0.08217642864281857-0.066514225271277650.399998278999075362054733000000
-0.06667721910590890.169056091085861620.40026715362705272054738000000
-0.0228201097127034120.34860212585917870.40019597411611232054743000000
-0.0878977626770545-0.032629971765859810.400185258444612342054748000000
-0.063531272821404240.141183440671471570.400379333022858052054753000000
0.0102497668619414530.311131537709624650.399929291909638832054758000000
-0.11311314056299794-0.0375806262283727150.4002759108530742054763000000
-0.05638670822384040.141768688353166750.40006608051879812054768000000
-0.046072169646011680.129022728696921250.399924282059591242054773000000
-0.056275228194516610.124111563644560250.400057037644440672054778000000
-0.00592396177616218160.324975102618753730.40021019754519892054783000000
-0.0692835671124229-0.0140952030103429420.400169814347365872054788000000
-0.056712350862908730.143999855426095140.400023769878939562054793000000
-0.0260227579405107460.144091448900761060.399810236937323872054798000000
-0.067026566009862840.117334176949102280.400327627129177472054803000000
-0.0402513229721349550.110518200645742140.40061726160054412054808000000
-0.077047599183570750.107544237691217650.39976582242594452054813000000
-0.063029039077134820.139881943243459480.400399715620542942054818000000
-0.041162678707735590.293401146348827750.40012598213389242054823000000
-0.108459641562227370.008188638589183540.39983576062500622054828000000
-0.063852490362642940.151063962863075750.400493015895602932054833000000
0.0112171865704641040.252487880847031330.399997271742120852054838000000
-0.058854815280594545-0.0252052931069397520.40012246849687832054843000000
-0.072040358945642150.137900892719506760.40017665076691572054848000000
-0.013892886900494770.282207431816052460.400284840993209432054853000000
-0.091183977877099680.0018824459441899710.400229124345970852054858000000
-0.053641194895409830.132203715877301760.40040001456093912054863000000
-0.0068767689983195780.27673692550098650.40002675617839792054868000000
-0.10632400064754605-0.012521356311186980.40037322948142542054873000000
-0.054799680447180970.13780237275567760.40062630784294562054878000000
-0.0384418192578701440.144659232255229670.39948803504919662054883000000
-0.07399735434234550.079436741020805310.39987315589017712054888000000
-0.0214575405588113870.27336242138023260.399941366365435042054893000000
-0.08717177488994936-0.05638993897998740.399830752069117062054898000000
-0.082923708312611170.166521308931736720.40048216533139862054903000000
0.0044959249299682260.249444633596973660.399527304314968132054908000000
-0.09897456286544637-0.0386267589832081860.39960285798127332054913000000
-0.067970966611833540.140343868574629220.400093533717891472054918000000
-0.0087724144942322520.256538875304158860.399904238318702372054923000000
-0.10113433706963255-0.073577342599797220.399645965936513972054928000000
-0.055807688168435650.158342674894052960.40002534594141412054933000000
-0.0141777465215055070.25391719308912250.399771017694746772054938000000
-0.09795338520941743-0.067652908618699340.3995094798666472054943000000
-0.036411502709143690.249114544049065220.39986436922572862054948000000
-0.079192594523821130.006253208920877790.399838140134011532054953000000
-0.069814891647703740.163975715461739250.400245555380568552054958000000
-0.0207379172839116250.26105785492802320.399901289173193232054963000000
-0.1009498584387169-0.0400781022782127140.399849220889176242054968000000
-0.060877371086247860.120394530822728830.40015579889061862054973000000
-0.01865016949239890.26407659982313550.399843994141332372054978000000
-0.13563736025974146-0.0355324102957549350.400119509231710362054983000000
-0.058615710872008750.13146854519617160.40029875166588012054988000000
-0.038788242288343490.26023927127339410.40007951961335932054993000000
-0.12483106250510509-0.0090577055182691420.39990937635336452054998000000
-0.071591581283070650.13427194409898390.400403818034931862055003000000
-0.0123505468731438040.25550886700096640.39986811203329992055008000000
-0.14971647072762556-0.0082465291541661510.400053164848270142055013000000
-0.0029853667813620130.249018860082890620.400452433150612132055018000000
-0.044365821702956750.149596504217923610.399893888102317242055023000000
-0.09749778342382694-0.0076926343673403980.399926116593089962055028000000
-0.0130541764901663580.278750062279285060.400312003319227452055033000000
-0.10593685017955337-0.0518057949858333340.400185961756387932055038000000
-0.095687587591084520.122831521934498910.400497750682678842055043000000
-0.027042621739521740.30783044310607480.39985258366869222055048000000
-0.08943766267243497-0.035066594384378140.39963127829416082055053000000
-0.064571025452628810.136464416263461060.40039245706704572055058000000
-0.00725370132217930.301027502557222770.39959702241011622055063000000
-0.08017622600523638-0.039139340319694020.400120891350442932055068000000
-0.070124664087615090.17279372773169690.40016802155332882055073000000
-0.022302480166205550.28439138126113810.399801162032536242055078000000
-0.13036512505760878-0.0161283626472900480.400032289225439542055083000000
-0.025313741946950870.263596106922773630.400190021948168552055088000000
-0.0595039361987913660.14952049585319920.39969159116680222055093000000
-0.086624811219391170.0146197366284918880.39992291214363672055098000000
-0.036387699310787430.302263983030948260.400228165945599962055103000000
-0.06042316652124832-0.0096362094900894480.39977069702267292055108000000
-0.03308277854383860.127710418549074330.400024153092743532055113000000
-0.0067950612489534120.274980001220084650.40001886863650072055118000000
-0.12265709012083105-0.085427880255825540.39998481618296392055123000000
-0.033793610188358190.157477512424210070.400040645417297562055128000000
-0.0134885654369141360.28527251407650840.399988632828123642055133000000
-0.08851227064128474-0.054150127871669230.400248655777459942055138000000
-0.032305167995298270.1313928484306580.40026838162964442055143000000
-0.0197027856952314080.306921795287738940.39952457236083362055148000000
-0.10797061252473632-0.00173776755016783260.400343247788622055153000000
-0.079584466491268980.133309364231310120.400302147847229952055158000000
-0.02114635431226380.25840565416187490.4000170586101372055163000000
-0.11146698157647825-0.059238308563150390.40025756419187342055168000000
-0.016357722542859260.30209461149236480.400287398074803962055173000000
-0.0990347246388078-0.033465064654208390.400120950020893652055178000000
-0.029981431661829940.114255178546930440.40081723523521332055183000000
-0.0214309297791431440.281878997600705340.40017600174805222055188000000
-0.11974598743290021-0.0329118305926541860.40000409441598882055193000000
-0.024050335797551090.2690072495304340.40034859980732072055198000000
-0.07164376886063821-0.0218758526596700840.40022195737973742055203000000
-0.044492716227507780.160702975105158350.400505794460465472055208000000
-0.033268681684507360.319398974355995570.40047969234457892055213000000
-0.11736261546298868-0.045518491590878760.39979796543498772055218000000
-0.0271459075993894550.15955712178374740.400198157264834762055223000000
-0.044654133601573860.136218897227469380.40000336340431182055228000000
-0.065564450283060780.129391473290367510.4001113102744382055233000000
-0.025938486619257830.26813852156181570.40042937704841932055238000000
-0.08695095040774424-0.0212659395730848760.40039674238180082055243000000
-0.082941190645638120.137726499117731160.39996915825938832055248000000
-0.0273836871129555450.25277516876810650.40009821682813042055253000000
-0.08427238502966633-0.0138611992343045040.399953370832070172055258000000
-0.037846923495971480.168571436243062530.400396293671692055263000000
-0.024614973948602570.3084920440533590.40020668254265812055268000000
-0.065616936868862330.0186436829095907930.399772131826597542055273000000
-0.049804830373854480.14837495919185860.400378904499921862055278000000
-0.0226767705089032970.314863148978648370.400033885274147962055283000000
-0.1026559517920458-0.0521374789495222050.399525848727542272055288000000
-0.0265216631973845440.143277892506054470.40019687340189882055293000000
-0.0026354965321362390.26014408985282820.39999247917842162055298000000
-0.12732819902737455-0.093076751179700980.40002459497159692055303000000
-0.063673071173061590.141303630636478630.400188654056681252055308000000
-0.0134558148153181620.29520734971401380.40018909673455052055313000000
-0.12654090410050967-0.017095912649028670.399862331589348532055318000000
-0.062347977724990110.15782924233733910.40019677778216282055323000000
-0.028526212207236160.234564195367535140.400261552109882732055328000000
-0.11677850192547187-0.104406795921488950.39970986918322672055333000000
-0.060647909426752390.147591115935437640.39987344154550542055338000000
-0.0102135138762207840.248739679443668070.40011688504065232055343000000
-0.10611726305229448-0.031269011285694670.400245092862332452055348000000
-0.076699139141949060.148525945039454880.400264826809396072055353000000
-0.00620303216516310.27315923855276850.400111743307888852055358000000
-0.09178505095289234-0.0295554983136263540.39977062007953922055363000000
-0.043500432261789160.125307981821638130.40008853076334262055368000000
-0.0083487118170839720.311138238162938230.400017451426287142055373000000
-0.13549071828773293-0.079589410328129310.39993266023315492055378000000
-0.055024645185682950.14185417583072240.4004673972118712055383000000
-0.0158410478044048420.2566209679294410.400066345903855372055388000000
-0.09481837707633284-0.044807999955434660.400414752115601352055393000000
-0.092684734262955190.124899582487944940.400158733924750542055398000000
-0.063047596403457080.15505372554096220.399878488125675952055403000000
-0.069374623444101530.1036227772329680.400125299350843732055408000000
-0.02337062122282870.310284418232395440.40001385928594212055413000000
-0.098727624437181360.00051977674091079760.400047502821249352055418000000
-0.061466661029395030.171655546489030750.400385902040947542055423000000
-0.039058882946003640.29139400581036040.399673912071554842055428000000
-0.1007976354024662-0.040859895702241580.400082078100672372055433000000
0.011946795123166390.26309797790291270.40053769769358622055438000000
-0.09344258336501071-0.031714143300596210.400138773360693032055443000000
-0.0083607179884762630.138478535445186870.400207540848385562055448000000
-0.0267683131618670360.118453097589963970.399934550983667762055453000000
-0.050645073928572970.116127109005347770.400427693198539662055458000000
0.0075769804552785270.29887574077562510.399887575342898652055463000000
-0.10299162066506239-0.0117456807935911660.399858354027919752055468000000
-0.061581228966771830.254167447831758430.39997622307258092055473000000
-0.08987385922913585-0.0208286121127626530.39949360847106032055478000000
-0.041538960125160780.100960562287931780.400197744653736032055483000000
-0.00304183989534313570.277266187624855550.40017332057911862055488000000
-0.1356532918454302-0.0488622945081295740.39970038513617582055493000000
-0.053971447104231270.142891558990997260.40029283411259322055498000000
0.025306766148314820.30125122354828880.40011081682410072055503000000
-0.09155688156823216-0.043616634368529790.399797106709876172055508000000
-0.052952541112260070.13456705151257680.40019904376108062055513000000
-0.0257548402918732940.24267495131943530.400030360383749952055518000000
-0.10680166605497017-0.0214610101097040.39997634149459852055523000000
-0.045512200971312150.176472569952704830.400052041395127232055528000000
-8.902749324358507e-050.27067115270681040.400014528646608362055533000000
-0.090051430312479130.0058547325736526890.39993060963114362055538000000
-0.0250393509470608380.269228169725679260.400024145803385632055543000000
-0.07851415826379264-0.00077748555584423270.39972856434975772055548000000
-0.065128431934247110.10045702964504680.400447832902474542055553000000
-0.0179685309919360580.28164727542975680.40040889071638782055558000000
-0.09085953151313701-0.0241135150758535930.39994322497785982055563000000
-0.059780601015292850.142393247045270340.40032576413434842055568000000
-0.0178404589711809380.294783773728829630.400139174632281272055573000000
-0.11797794922464709-0.046670250744187340.40010145803161552055578000000
-0.064017994722058270.126928303453013870.400513014264550772055583000000
-0.0112552205894121920.278005226771570140.39981878830277632055588000000
-0.09560100179998146-0.033711205614744930.39992821760274822055593000000
-0.073905360504802450.130541075339669550.400663972407345972055598000000
-0.0082508201392978570.274048094903828640.400064611982721032055603000000
-0.1225375115765698-0.090288269529824270.40028949631685962055608000000
-0.070908243351692460.17093170686070680.40021310735692882055613000000
-0.0098219453776738650.2454521198936830.399885866111927062055618000000
-0.09117520465083796-0.030562526001865260.40007666471774632055623000000
-0.068702138370945670.156905522882127140.399940447696975842055628000000
-0.0248349976094111580.252885628069986930.40058713586361862055633000000
-0.12198154779870102-0.058456010228603540.39974361284217012055638000000
0.0076503167745204350.29113239184913970.400310999118652262055643000000
-0.08943370807850667-0.025636656517411620.3997756301010272055648000000
-0.048106620170859760.118896486033038080.40036365074143142055653000000
-0.0149265523446309640.33221082347381250.400094760887022055658000000
-0.072338303219921480.00271859677075315250.39999306883296632055663000000
-0.065062822806824610.130059272408691470.400423036616813062055668000000
0.0089432032235993150.323338308864550060.40014804264703762055673000000
-0.08820735918995953-0.000158444469948264970.400240593738776462055678000000
-0.06924267659015260.124753124259270540.40014834729514162055683000000
-0.0411112364137985460.149099517905380040.39995185331877542055688000000
-0.040754230137081540.113393839826801530.400383642158079032055693000000
-0.026235450241152630.26083254078541060.39987427490366812055698000000
-0.09818508409691075-0.0272331120838610470.399558823337816062055703000000
-0.077312154071805820.103648761447861340.40028067753888572055708000000
-0.019460127487415140.274049126680359970.400044810652896152055713000000
-0.09015887753352494-0.046167854685826950.40011857554862252055718000000
-0.047502544664145850.122948536399887840.40023684443765662055723000000
-0.0222733283147217850.30374010021123840.40010396410275812055728000000
-0.07093794648134608-0.036750916668568270.40020613590868262055733000000
-0.0586235061923133450.11274320254126380.39992127002963172055738000000
0.0041869515931402660.28253828202706930.399777495661627852055743000000
-0.14003669556696802-0.038095550779913510.400242252740488472055748000000
-0.048954248937161480.141964149314189690.400152845321556042055753000000
-0.0549952929221059760.148098841409971730.400052636021220152055758000000
-0.081991393624392060.114472667194086330.400038513029810752055763000000
-0.014506446123520260.2874130057868610.40017308663541622055768000000
-0.09878771924045095-0.022673744521551440.40007553056288922055773000000
-0.078805589558829130.1534834253676990.40017226789909982055778000000
-0.014831534067180390.29947532999028340.399900132692561142055783000000
-0.101511141868272880.02168549698423220.40014750836605362055788000000
-0.063380541443294970.101221112031259140.40044320876372172055793000000
-0.056366078388718660.119739214914732690.39985237289379042055798000000
-0.054360699890259620.119607389365811150.40026752318721262055803000000
-0.0241684890780826460.258909239803867930.39978850010601482055808000000
-0.09425065839568628-0.041473351628787160.399513620813423452055813000000
-0.0606317676069179840.113189027338286260.40033319644576772055818000000
-0.010594195248342980.232688713454855980.399814484185937072055823000000
-0.06711743796879088-0.034665551939263710.39984142379405082055828000000
-0.0311565403579179660.168479107883121760.40029707455405512055833000000
-0.0110021907149942360.318804920227467760.400041880058269462055838000000
-0.07832085421705334-0.022537859558577690.39993422931028232055843000000
-0.058481310421347160.160309689970299760.4004645055566412055848000000
-0.0285135895595209080.29899725698155060.399852247606837132055853000000
-0.076234211669163-0.033507585855073040.399696704720442552055858000000
-0.01468932532825640.25787469342456270.40059503059839472055863000000
-0.08952103021503740.0201911399971127850.400026375124210742055868000000
-0.06964889916429210.102498571051042960.40031066209443872055873000000
-0.0155073199105181960.276531621343467150.400085901091400242055878000000
-0.1239969233269629-0.0287025641505001260.399886373510271452055883000000
-0.059633664907057740.119620187536292070.399793082271556972055888000000
-0.0137318574373198820.33040102964437530.400223934264098862055893000000
-0.09395056866883499-0.024935026126127270.39993550202822122055898000000
-0.048733555771251340.12508491914920180.400375855384150662055903000000
-0.0228090715554588080.28840537971564130.399716898734710062055908000000
-0.11397962355088088-0.0322445856455932240.39996116884337382055913000000
-0.0303709533308316320.26925985186984470.400027991196999442055918000000
-0.12214820773725993-0.0053122066605829040.400176477608415852055923000000
-0.07372609078212990.115625681404969410.400196925322592662055928000000
-0.037636247785519850.275724216540550960.400172194413892352055933000000
-0.10503920743216447-0.00104397193034902770.40017907282101492055938000000
-0.0467865609854250.136654232334406380.40010483839237542055943000000
-0.0168271433341219930.287460444808801230.39966281364256332055948000000
-0.09977188284050714-0.055339040987065770.40007690072716892055953000000
-0.036743346498240050.136645731650296980.40032185353247082055958000000
-0.0199004074922862660.146599384580265280.40070659863181532055963000000
-0.066550880454772020.112454120752545560.39965528788401122055968000000
-0.0167646075474452050.27333377480795160.40024094600866822055973000000
-0.10660540922726214-0.029793988781105050.400082612987149752055978000000
-0.062516982610373490.137366239278772280.400376819031606162055983000000
-0.0208962982352425830.28867991406431550.399834426523086432055988000000
-0.07851059395836779-0.037536743651655890.39991415823183822055993000000
-0.057723376893762950.13894335075004020.400677670784582332055998000000
0.016218498671388980.34502332560410050.400025356931113462056003000000
-0.09702851488720676-0.044359911087998610.400072425639712742056008000000
-0.0069675435387116460.255123569184282140.40014867355365232056013000000
-0.07197238493212546-0.048847111833545820.40010917332520032056018000000
-0.090422363560731380.168971736603976940.40013539867059222056023000000
-0.0258993498953757960.27794983370225950.39996783031536682056028000000
-0.09364320508465535-0.049874262834624720.400314050289717952056033000000
-0.032106844531621390.27258225574012480.399917203796780032056038000000
-0.09819645457444505-0.0140661404687657460.39999327400794242056043000000
-0.060885768050616280.134122171891776470.400195149309886032056048000000
0.00636825721773515150.27082667695804790.39997160260748992056053000000
-0.11288194543236704-0.017446975606636540.39977013532740362056058000000
-0.053977258745556020.149641076142271180.40010910066694612056063000000
0.0172549541955997820.32024536455213710.40017009687236692056068000000
-0.09097896629843356-0.016268029184632890.40010804207849372056073000000
-0.0440648054372289740.14902103682316740.400523005524123342056078000000
-0.0062461744299508830.33528221334400660.400091932735907932056083000000
-0.096272114103194280.0163959155808609050.399720535176462552056088000000
-0.054151078518664380.160901846718711940.400216902181754762056093000000
-0.033862222046507960.149844099580842020.399884145391725452056098000000
-0.0389090045397420540.129147280593938540.40006160553253152056103000000
-0.057030558844863090.280302181951703640.400402917833292056108000000
-0.092377794543639240.0056710555719090420.39976129512971912056113000000
-0.067917204296215670.127134151746363030.40009234436447172056118000000
-0.0401433145417561460.26774548754726030.40047519808898852056123000000
-0.10082905575195564-0.048878655765080470.400190226361405442056128000000
-0.0453631477226597160.132774571122192960.40054454263822812056133000000
0.0135564113554637320.325959130858465560.40006513967985122056138000000
-0.07733085189284082-0.07356932736855670.39990710120882932056143000000
-0.0471516671743866450.118281365320321950.40022286315006432056148000000
0.00276010189404984380.266938952956392970.40016407729945032056153000000
-0.10980771711458734-0.044270201462588280.40011878579557582056158000000
-0.022949186472833470.234207531334677480.39985785105854692056163000000
-0.11804155868383809-0.0154835219400751170.4001487376543182056168000000
-0.0354357411913946150.161106660730503730.40020939735138072056173000000
-0.0228545242832250240.264655827418459440.399497730630745952056178000000
-0.0942656279630187-0.027792816925147420.400121732237385232056183000000
-0.0464709939800732950.13721483327538250.400150843595047272056188000000
0.0078421883532698160.30346343128099770.399684032027389842056193000000
-0.08969282965004166-0.00238655000994207960.400148012226720642056198000000
-0.033169566743269140.29988486611894650.40001899802167792056203000000
-0.079447136884221480.0104411352237547130.399743887412986172056208000000
-0.0181916494544010970.13697923157080170.40018235991341332056213000000
0.0082385570320502930.25611296651310440.399969674847352352056218000000
-0.08879431151506836-0.0312104835669277760.400183501787831242056223000000
-0.045093647919929330.15265294170416020.40028562284721552056228000000
-0.0364298837378318340.247289400878945050.400001760793471052056233000000
-0.13443018383907307-0.0203571408544212860.40006986783061162056238000000
-0.040396499505213360.276590295753567140.400037667862584162056243000000
-0.09819905396673898-0.0262334267175254530.400343494266858452056248000000
-0.071741165286216310.14568586975851210.40029211886490292056253000000
-0.0264458439061122650.111311240761792410.39979127389283112056258000000
-0.0456680892076608560.118562314435483960.400160252827300442056263000000
-0.0188501534803572620.260601356982566260.40007835081328522056268000000
-0.11920586798007367-0.033041222188976750.40014298217346122056273000000
-0.0153011820652717430.2764638378102290.400315043736320262056278000000
-0.106222875499962020.0025012836565982340.39999844688151552056283000000
-0.07495944153953490.092849987279708250.400198096839412042056288000000
-0.0272227273201804750.21141425831997860.400060451168899432056293000000
-0.1185388950876707-0.110267918621557740.399961159562337852056298000000
-0.0260695735519688720.278563409179860.399983544250531842056303000000
-0.09938498619681656-0.05008970518251370.400184315785423242056308000000
-0.049963281650388710.143183507052451920.40034355240360332056313000000
0.000378965302880496930.30673510311085470.39990241059810412056318000000
-0.08814282258407279-0.0214909418908670780.400096066960509762056323000000
-0.0218789852658540330.35808403954859460.400121547637398272056328000000
-0.05961339489989799-0.0187454579021929280.399874514850201532056333000000
-0.040576795895358650.252324042850894770.400022514848488162056338000000
-0.09388883559312854-0.032218467361713730.399653940054151452056343000000
-0.0581179772245772050.153834387966138820.400439304940938662056348000000
0.0227417513789629970.31131300351732760.399910178857121052056353000000
-0.09843077525718619-0.033424221383703750.400080640669655152056358000000
0.0211755699827717720.25844688160749870.400104330710042056363000000
-0.06604446613215580.137896666229723050.39965989689352522056368000000
-0.088344140111063240.0166910682525477360.400210104351899132056373000000
-0.039870309676384550.134989096919064850.400627576865780652056378000000
-0.050535846438990270.145429085932613420.400022881439278332056383000000
-0.093085592561876930.146069403741278530.40020210230270982056388000000
-0.044290133476039080.25147280686154180.400120843834116452056393000000
-0.12700493218388031-0.0253297799860562680.400119401223010542056398000000
-0.040284911624506060.127393769371569270.400115059942242056403000000
0.033020647564917040.288192884411532730.39993719676650392056408000000
-0.063663253348001230.0121789911271675420.400237187446904732056413000000
-0.00072634937888274750.301107687641771260.39986910481446282056418000000
-0.08398802330655224-0.068288462347934660.40014220779328222056423000000
-0.096466430976349080.153995590906783330.40033793646305112056428000000
-0.0174395257268859830.28273295596195030.39974000251935222056433000000
-0.12246586959531246-0.08317864296885490.40000056053251392056438000000
-0.02814894491575450.249870566329867730.400368472860403172056443000000
-0.08216785840743708-0.00283443795146931170.399847772938035032056448000000
-0.065100637476652930.103463886181221650.40008975239936552056453000000
-0.045580680928441220.269870269914252840.400048568649481852056458000000
-0.11429403550950124-0.045344107893441910.40028575458358682056463000000
-0.047264990412892030.1417287127658810.40037251829190232056468000000
-0.0239434170445160380.32589628148997610.399795582169923062056473000000
-0.103115156822880330.0091962405862387260.400342748991330652056478000000
-0.0122254026327922980.30134718382538180.39975249605076742056483000000
-0.13925177270290667-0.026846005745068040.40041286955039122056488000000
-0.07807715776519230.126751552341193790.40032744759804782056493000000
-0.032855589886860660.285835266762440030.39994451992990122056498000000
-0.10665770554335956-0.040836624748405450.40008900207469782056503000000
-0.0213653047255983540.229330430696147220.40012831177933362056508000000
-0.06994200489547872-0.0134363512699971310.39992636450560842056513000000
-0.050473846740418750.14312983442318810.40020649788407032056518000000
-0.0309523166353160360.26038026778730620.40020026380926992056523000000
-0.10837366217505484-0.063729997322374670.400207273318321452056528000000
-0.078921187361086570.137509039513557580.4000451801672832056533000000
-0.0123235027626423240.287535275338367260.39976420390516532056538000000
-0.10635623993727518-0.0062406909323025130.400234340077804062056543000000
-0.063881367218697460.128984665103432460.40015027816111312056548000000
-0.03494603342561510.238773240699062280.399737903044303232056553000000
-0.0928187913480595-0.0270976895363318480.40033081046642112056558000000
-0.0274633661232290480.139754246745789960.40023117039459912056563000000
-0.00095064617701923720.272129537082603570.40007728499740672056568000000
-0.07770229533984077-0.0318740109951266840.4000216345960752056573000000
-0.05904896005578610.14679369099353870.4003152086082292056578000000
-0.0052826039240406230.293762675415582430.39980298536624972056583000000
-0.089875830942764860.00119842977444951230.40030086165225062056588000000
-0.0130189736588147160.249959033668812030.40010254951398932056593000000
-0.08394065626103318-0.02988357250517440.400120833969240532056598000000
-0.047161971774456960.137408453833777340.40021737405491672056603000000
-0.0154011533296878940.29682824757257770.399774968666614942056608000000
